"subject","trial_number","block","context","left_index","right_index","correct_resp","CHOICE_KEY","RT","left_outcome","right_outcome","chosen_option","EV_left","EV_right","correct_option","correct","choice","choice_id","pre_fix_left","pre_fix_right"
1,1,"learning",1,1,2,"right","Right",3850.14,16,19,2,15,18,1,1,2,2,0.597014925373134,0.402985074626866
1,2,"learning",3,5,6,"right","Right",2279.89,28,30,6,27,30,5,1,6,2,0.339080459770115,0.660919540229885
1,3,"learning",3,6,5,"left","Left",2491.91,28,30,6,30,27,5,1,6,1,0.75796178343949,0.24203821656051
1,4,"learning",2,3,4,"right","Right",2273.62,20,23,4,21,24,3,1,4,2,0,1
1,5,"learning",1,1,2,"right","Right",1670.8,16,19,2,15,18,1,1,2,2,0.554455445544555,0.445544554455446
1,6,"learning",2,3,4,"right","Left",4256.44,22,25,3,21,24,3,0,3,1,0.405091558731577,0.594908441268423
1,7,"learning",3,6,5,"left","Left",2072.33,27,30,6,30,27,5,1,6,1,0.331162790697674,0.668837209302325
1,8,"learning",3,6,5,"left","Right",1789.49,32,26,5,30,27,5,0,5,2,0.5,0.5
1,9,"learning",2,3,4,"right","Right",1608.77,18,23,4,21,24,3,1,4,2,0.474178403755869,0.525821596244131
1,10,"learning",1,2,1,"left","Left",2478.27,20,16,2,18,15,1,1,2,1,0.483490566037736,0.516509433962264
1,11,"learning",4,8,7,"left","Right",2001.59,38,32,7,36,33,7,0,7,2,0.315503173164098,0.684496826835902
1,12,"learning",3,5,6,"right","Right",3899.96,28,30,6,27,30,5,1,6,2,0.56427255985267,0.43572744014733
1,13,"learning",2,4,3,"left","Left",2586.81,26,19,4,24,21,3,1,4,1,0.636363636363636,0.363636363636364
1,14,"learning",1,1,2,"right","Right",1346,14,17,2,15,18,1,1,2,2,0.364333652924257,0.635666347075743
1,15,"learning",1,1,2,"right","Right",1365.64,16,18,2,15,18,1,1,2,2,0.51827242524917,0.481727574750831
1,16,"learning",2,3,4,"right","Left",2303.85,18,27,3,21,24,3,0,3,1,0.552995391705069,0.447004608294931
1,17,"learning",4,7,8,"right","Left",3214.59,30,36,7,33,36,7,0,7,1,0.440184049079755,0.559815950920245
1,18,"learning",2,3,4,"right","Right",2259.35,18,22,4,21,24,3,1,4,2,0.546651402404121,0.453348597595879
1,19,"learning",3,6,5,"left","Right",3064.22,32,26,5,30,27,5,0,5,2,0.459602111246447,0.540397888753553
1,20,"learning",1,1,2,"right","Right",1164.67,12,16,2,15,18,1,1,2,2,0.54,0.46
1,21,"learning",1,1,2,"right","Right",1632.21,16,14,2,15,18,1,1,2,2,0.704028021015762,0.295971978984238
1,22,"learning",1,2,1,"left","Right",2636.26,17,14,1,18,15,1,0,1,2,0.443786982248521,0.556213017751479
1,23,"learning",2,4,3,"left","Right",3235.63,24,20,3,24,21,3,0,3,2,0.612048192771084,0.387951807228916
1,24,"learning",1,2,1,"left","Left",1689.66,20,14,2,18,15,1,1,2,1,0.676396997497915,0.323603002502085
1,25,"learning",3,6,5,"left","Left",1771.6,29,26,6,30,27,5,1,6,1,0.606850335070737,0.393149664929263
1,26,"learning",4,8,7,"left","Left",2125.97,33,36,8,36,33,7,1,8,1,0.539267015706806,0.460732984293194
1,27,"learning",3,6,5,"left","Left",2859.55,31,27,6,30,27,5,1,6,1,0.438040345821326,0.561959654178674
1,28,"learning",4,7,8,"right","Left",3077.44,34,37,7,33,36,7,0,7,1,0.724581223217764,0.275418776782236
1,29,"learning",4,7,8,"right","Right",2081.28,34,36,8,33,36,7,1,8,2,0.397932816537468,0.602067183462532
1,30,"learning",2,4,3,"left","Right",2430.23,22,24,3,24,21,3,0,3,2,0.467908902691511,0.532091097308489
1,31,"learning",4,7,8,"right","Right",2714.34,30,35,8,33,36,7,1,8,2,0.375,0.625
1,32,"learning",1,2,1,"left","Left",1472.07,19,15,2,18,15,1,1,2,1,0.56734693877551,0.43265306122449
1,33,"learning",3,5,6,"right","Right",2392.64,24,33,6,27,30,5,1,6,2,0.482142857142857,0.517857142857143
1,34,"learning",1,2,1,"left","Left",917.07,20,14,2,18,15,1,1,2,1,0.369230769230769,0.630769230769231
1,35,"learning",4,7,8,"right","Right",2168.41,34,37,8,33,36,7,1,8,2,0.485591661557327,0.514408338442673
1,36,"learning",4,8,7,"left","Left",2940.23,36,30,8,36,33,7,1,8,1,0.654255319148936,0.345744680851064
1,37,"learning",4,8,7,"left","Left",1598.21,35,32,8,36,33,7,1,8,1,0.452671040299906,0.547328959700094
1,38,"learning",1,2,1,"left","Left",781.73,15,18,2,18,15,1,1,2,1,0.575539568345324,0.424460431654676
1,39,"learning",3,5,6,"right","Right",1442.32,28,29,6,27,30,5,1,6,2,0.371850564726325,0.628149435273675
1,40,"learning",2,3,4,"right","Right",1873.47,22,24,4,21,24,3,1,4,2,0.431205673758865,0.568794326241135
1,41,"learning",4,8,7,"left","Left",1536.64,36,32,8,36,33,7,1,8,1,0.668580803937654,0.331419196062346
1,42,"learning",2,4,3,"left","Left",1641.46,24,18,4,24,21,3,1,4,1,0.664429530201342,0.335570469798658
1,43,"learning",2,3,4,"right","Right",2519.7,23,25,4,21,24,3,1,4,2,0.36944583125312,0.63055416874688
1,44,"learning",2,4,3,"left","Left",1507.31,26,23,4,24,21,3,1,4,1,0.551219512195122,0.448780487804878
1,45,"learning",4,8,7,"left","Left",1703.82,37,35,8,36,33,7,1,8,1,0.596330275229358,0.403669724770642
1,46,"learning",4,7,8,"right","Right",1132.33,34,35,8,33,36,7,1,8,2,0.251748251748252,0.748251748251748
1,47,"learning",4,7,8,"right","Right",1000.44,30,34,8,33,36,7,1,8,2,0.337278106508876,0.662721893491124
1,48,"learning",2,4,3,"left","Left",1124.01,21,24,4,24,21,3,1,4,1,0.46,0.54
1,49,"learning",2,4,3,"left","Right",840.87,25,21,3,24,21,3,0,3,2,0.450106157112527,0.549893842887473
1,50,"learning",3,6,5,"left","Left",1764.95,30,28,6,30,27,5,1,6,1,0.5168,0.4832
1,51,"learning",1,2,1,"left","Left",984.05,18,16,2,18,15,1,1,2,1,0.587982832618026,0.412017167381974
1,52,"learning",3,5,6,"right","Right",2392.49,24,30,6,27,30,5,1,6,2,0.64509394572025,0.35490605427975
1,53,"learning",3,5,6,"right","Right",1921.88,28,31,6,27,30,5,1,6,2,0.573759347382733,0.426240652617267
1,54,"learning",1,1,2,"right","Right",1033.2,16,19,2,15,18,1,1,2,2,0.496774193548387,0.503225806451613
1,55,"learning",3,6,5,"left","Left",1314.67,31,29,6,30,27,5,1,6,1,0.558515699333968,0.441484300666032
1,56,"learning",4,7,8,"right","Right",2006.31,34,37,8,33,36,7,1,8,2,0.588474576271186,0.411525423728814
1,57,"learning",4,8,7,"left","Left",1185.83,37,33,8,36,33,7,1,8,1,0.46031746031746,0.53968253968254
1,58,"learning",1,1,2,"right","Right",775.55,16,17,2,15,18,1,1,2,2,0.29723991507431,0.70276008492569
1,59,"learning",1,2,1,"left","Left",720.54,20,13,2,18,15,1,1,2,1,0.803738317757009,0.196261682242991
1,60,"learning",4,8,7,"left","Left",2327.23,36,32,8,36,33,7,1,8,1,0.516886090440756,0.483113909559244
1,61,"learning",1,2,1,"left","Left",737.16,18,12,2,18,15,1,1,2,1,0.585585585585586,0.414414414414414
1,62,"learning",2,4,3,"left","Right",2369.76,23,20,3,24,21,3,0,3,2,0.4149377593361,0.5850622406639
1,63,"learning",3,5,6,"right","Right",1412.67,24,28,6,27,30,5,1,6,2,0.606837606837607,0.393162393162393
1,64,"learning",1,1,2,"right","Right",808.45,13,16,2,15,18,1,1,2,2,0.403603603603604,0.596396396396396
1,65,"learning",3,6,5,"left","Left",1155.03,30,26,6,30,27,5,1,6,1,0.453271028037383,0.546728971962617
1,66,"learning",2,3,4,"right","Right",1296.15,19,22,4,21,24,3,1,4,2,0.379719525350593,0.620280474649407
1,67,"learning",1,2,1,"left","Left",623.79,20,17,2,18,15,1,1,2,1,1,0
1,68,"learning",2,4,3,"left","Left",1728.35,23,21,4,24,21,3,1,4,1,0.601084430673896,0.398915569326104
1,69,"learning",3,5,6,"right","Right",930.72,31,29,6,27,30,5,1,6,2,0.273809523809524,0.726190476190476
1,70,"learning",3,5,6,"right","Left",1643.47,24,29,5,27,30,5,0,5,1,1,0
1,71,"learning",2,3,4,"right","Right",2019.8,22,25,4,21,24,3,1,4,2,0.576388888888889,0.423611111111111
1,72,"learning",2,4,3,"left","Left",2625.82,24,20,4,24,21,3,1,4,1,0.519607843137255,0.480392156862745
1,73,"learning",1,1,2,"right","Right",668.05,17,19,2,15,18,1,1,2,2,0.257471264367816,0.742528735632184
1,74,"learning",2,4,3,"left","Left",1134.43,26,20,4,24,21,3,1,4,1,0.691860465116279,0.308139534883721
1,75,"learning",4,8,7,"left","Left",1281.68,38,35,8,36,33,7,1,8,1,0.482233502538071,0.517766497461929
1,76,"learning",4,8,7,"left","Left",796.01,35,33,8,36,33,7,1,8,1,0.83629191321499,0.16370808678501
1,77,"learning",4,7,8,"right","Right",1142.25,34,36,8,33,36,7,1,8,2,0.538888888888889,0.461111111111111
1,78,"learning",1,1,2,"right","Right",670.35,19,17,2,15,18,1,1,2,2,0,1
1,79,"learning",4,8,7,"left","Left",1215.07,38,32,8,36,33,7,1,8,1,0.75741935483871,0.24258064516129
1,80,"learning",2,4,3,"left","Left",1744.46,26,22,4,24,21,3,1,4,1,0.306896551724138,0.693103448275862
1,81,"learning",1,2,1,"left","Left",1113.69,18,14,2,18,15,1,1,2,1,0.724137931034483,0.275862068965517
1,82,"learning",1,1,2,"right","Right",1408.29,12,17,2,15,18,1,1,2,2,0.204651162790698,0.795348837209302
1,83,"learning",3,6,5,"left","Right",2694.43,30,26,5,30,27,5,0,5,2,0.409430707303048,0.590569292696952
1,84,"learning",4,7,8,"right","Right",1101.87,34,32,8,33,36,7,1,8,2,0.467836257309941,0.532163742690059
1,85,"learning",2,3,4,"right","Right",1783.02,18,24,4,21,24,3,1,4,2,0.6625,0.3375
1,86,"learning",1,2,1,"left","Left",845.89,16,18,2,18,15,1,1,2,1,0.895238095238095,0.104761904761905
1,87,"learning",3,6,5,"left","Left",1396.81,32,29,6,30,27,5,1,6,1,0.5,0.5
1,88,"learning",2,3,4,"right","Right",1271.8,25,23,4,21,24,3,1,4,2,0.388753056234719,0.611246943765281
1,89,"learning",1,1,2,"right","Right",837.66,16,18,2,15,18,1,1,2,2,0.536231884057971,0.463768115942029
1,90,"learning",4,7,8,"right","Right",2128.9,35,37,8,33,36,7,1,8,2,0.545197740112994,0.454802259887006
1,91,"learning",1,2,1,"left","Left",793.19,19,17,2,18,15,1,1,2,1,0.609603340292276,0.390396659707724
1,92,"learning",4,8,7,"left","Right",1790.51,38,34,7,36,33,7,0,7,2,0.479495268138801,0.520504731861199
1,93,"learning",2,3,4,"right","Left",2562.12,22,24,3,21,24,3,0,3,1,0.542673107890499,0.457326892109501
1,94,"learning",2,3,4,"right","Right",1762.5,22,23,4,21,24,3,1,4,2,0.43167701863354,0.56832298136646
1,95,"learning",3,5,6,"right","Right",1566.12,25,28,6,27,30,5,1,6,2,0.426807760141093,0.573192239858906
1,96,"learning",4,7,8,"right","Right",1791.28,32,35,8,33,36,7,1,8,2,0.509834775767112,0.490165224232887
1,97,"learning",1,1,2,"right","Right",781.14,12,18,2,15,18,1,1,2,2,0.578947368421053,0.421052631578947
1,98,"learning",3,5,6,"right","Right",969.72,26,29,6,27,30,5,1,6,2,0.503184713375796,0.496815286624204
1,99,"learning",3,6,5,"left","Left",1176.06,32,28,6,30,27,5,1,6,1,0.680880330123796,0.319119669876204
1,100,"learning",3,5,6,"right","Right",1048.76,28,31,6,27,30,5,1,6,2,0.228260869565217,0.771739130434783
1,101,"learning",3,5,6,"right","Left",3659.3,28,31,5,27,30,5,0,5,1,0.671102661596958,0.328897338403042
1,102,"learning",3,5,6,"right","Right",846.61,28,26,6,27,30,5,1,6,2,0,1
1,103,"learning",3,6,5,"left","Left",1230.49,30,24,6,30,27,5,1,6,1,1,0
1,104,"learning",3,5,6,"right","Right",1645.18,29,31,6,27,30,5,1,6,2,0.284931506849315,0.715068493150685
1,105,"learning",4,8,7,"left","Left",1644.12,36,34,8,36,33,7,1,8,1,0.617834394904459,0.382165605095541
1,106,"learning",3,6,5,"left","Left",1520.31,32,25,6,30,27,5,1,6,1,0.636363636363636,0.363636363636364
1,107,"learning",2,4,3,"left","Left",2028.43,24,22,4,24,21,3,1,4,1,0.626470588235294,0.373529411764706
1,108,"learning",3,6,5,"left","Right",1485.41,29,27,5,30,27,5,0,5,2,0.358381502890173,0.641618497109827
1,109,"learning",4,7,8,"right","Right",1273.82,37,35,8,33,36,7,1,8,2,0.380116959064327,0.619883040935672
1,110,"learning",1,2,1,"left","Left",711.4,18,14,2,18,15,1,1,2,1,0.915129151291513,0.0848708487084871
1,111,"learning",2,3,4,"right","Left",1625.43,22,25,3,21,24,3,0,3,1,0.590106007067138,0.409893992932862
1,112,"learning",4,8,7,"left","Left",2831.33,34,36,8,36,33,7,1,8,1,0.563302752293578,0.436697247706422
1,113,"learning",2,4,3,"left","Right",2894.8,25,23,3,24,21,3,0,3,2,0.58161865569273,0.41838134430727
1,114,"learning",4,7,8,"right","Right",1535.94,31,34,8,33,36,7,1,8,2,0.572573463935886,0.427426536064114
1,115,"learning",2,4,3,"left","Left",1932.86,26,20,4,24,21,3,1,4,1,0.436923076923077,0.563076923076923
1,116,"learning",4,7,8,"right","Right",1340.37,30,39,8,33,36,7,1,8,2,0.634453781512605,0.365546218487395
1,117,"learning",1,1,2,"right","Right",1236.87,12,21,2,15,18,1,1,2,2,0.571428571428571,0.428571428571429
1,118,"learning",1,2,1,"left","Left",843.35,17,15,2,18,15,1,1,2,1,0.339622641509434,0.660377358490566
1,119,"learning",2,3,4,"right","Right",1570.77,22,20,4,21,24,3,1,4,2,0.66796875,0.33203125
1,120,"learning",4,8,7,"left","Left",1456.95,38,31,8,36,33,7,1,8,1,0.659742828882295,0.340257171117705
1,121,"transfer",100,4,7,"right","Left",2272.14,NA,NA,4,24,33,6,0,4,1,0.485939257592801,0.514060742407199
1,122,"transfer",100,4,6,"right","Right",2095.82,NA,NA,6,24,30,5,1,6,2,0.233292831105711,0.766707168894289
1,123,"transfer",100,5,3,"left","Right",2841.92,NA,NA,3,27,21,4,0,3,2,0.462699077954736,0.537300922045264
1,124,"transfer",100,5,4,"left","Left",2661.26,NA,NA,5,27,24,4,1,5,1,0.549655850540806,0.450344149459194
1,125,"transfer",100,2,1,"left","Left",2188.2,NA,NA,2,18,15,1,1,2,1,0.624834874504623,0.375165125495377
1,126,"transfer",100,2,4,"right","Right",1711.48,NA,NA,4,18,24,3,1,4,2,0.323763955342903,0.676236044657097
1,127,"transfer",100,1,3,"right","Right",1934.31,NA,NA,3,15,21,2,1,3,2,0.719626168224299,0.280373831775701
1,128,"transfer",100,3,2,"left","Left",1382.5,NA,NA,3,21,18,2,1,3,1,0.64741641337386,0.35258358662614
1,129,"transfer",100,5,6,"right","Right",1945.74,NA,NA,6,27,30,5,1,6,2,0.323238973008558,0.676761026991442
1,130,"transfer",100,6,8,"right","Left",1561.42,NA,NA,6,30,36,7,0,6,1,0.341637010676157,0.658362989323843
1,131,"transfer",100,5,4,"left","Left",1983.72,NA,NA,5,27,24,4,1,5,1,0.510699001426534,0.489300998573466
1,132,"transfer",100,7,6,"left","Right",2579.53,NA,NA,6,33,30,6,0,6,2,0.840875186474391,0.159124813525609
1,133,"transfer",100,3,7,"right","Left",3158.43,NA,NA,3,21,33,6,0,3,1,0.678327301970245,0.321672698029755
1,134,"transfer",100,8,7,"left","Right",3250.43,NA,NA,7,36,33,7,0,7,2,0.657004830917874,0.342995169082126
1,135,"transfer",100,3,1,"left","Left",1335.25,NA,NA,3,21,15,2,1,3,1,0.682983682983683,0.317016317016317
1,136,"transfer",100,2,5,"right","Right",1012.47,NA,NA,5,18,27,4,1,5,2,0.443585780525502,0.556414219474498
1,137,"transfer",100,7,1,"left","Left",1268.14,NA,NA,7,33,15,6,1,7,1,0.588571428571429,0.411428571428571
1,138,"transfer",100,5,7,"right","Left",2455.01,NA,NA,5,27,33,6,0,5,1,0.560862865947612,0.439137134052388
1,139,"transfer",100,2,3,"right","Right",675.64,NA,NA,3,18,21,2,1,3,2,0,1
1,140,"transfer",100,6,3,"left","Left",2053.34,NA,NA,6,30,21,5,1,6,1,0.53259532595326,0.46740467404674
1,141,"transfer",100,3,6,"right","Right",1308.15,NA,NA,6,21,30,5,1,6,2,0.768211920529801,0.231788079470199
1,142,"transfer",100,3,7,"right","Left",2517.7,NA,NA,3,21,33,6,0,3,1,0.377912867274569,0.622087132725431
1,143,"transfer",100,4,1,"left","Left",1064.81,NA,NA,4,24,15,3,1,4,1,0.485564304461942,0.514435695538058
1,144,"transfer",100,6,1,"left","Left",914.72,NA,NA,6,30,15,5,1,6,1,0.421461897356143,0.578538102643857
1,145,"transfer",100,8,3,"left","Left",2699.22,NA,NA,8,36,21,7,1,8,1,0.545234639574262,0.454765360425738
1,146,"transfer",100,5,7,"right","Left",1846.17,NA,NA,5,27,33,6,0,5,1,0.353702372393961,0.646297627606039
1,147,"transfer",100,6,5,"left","Left",1514.16,NA,NA,6,30,27,5,1,6,1,0.471441523118767,0.528558476881233
1,148,"transfer",100,7,4,"left","Right",2272.6,NA,NA,4,33,24,6,0,4,2,0.392678868552413,0.607321131447587
1,149,"transfer",100,2,1,"left","Left",1155.04,NA,NA,2,18,15,1,1,2,1,0.572327044025157,0.427672955974843
1,150,"transfer",100,4,8,"right","Left",1981.92,NA,NA,4,24,36,7,0,4,1,0.350101971447995,0.649898028552006
1,151,"transfer",100,6,7,"right","Left",1706.7,NA,NA,6,30,33,6,0,6,1,0.37741456166419,0.62258543833581
1,152,"transfer",100,7,5,"left","Right",2041.7,NA,NA,5,33,27,6,0,5,2,0.67877094972067,0.32122905027933
1,153,"transfer",100,7,4,"left","Left",2212.01,NA,NA,7,33,24,6,1,7,1,0.513513513513513,0.486486486486486
1,154,"transfer",100,4,3,"left","Left",2683.06,NA,NA,4,24,21,3,1,4,1,0.434619002822201,0.565380997177799
1,155,"transfer",100,4,2,"left","Left",1129.34,NA,NA,4,24,18,3,1,4,1,0.671916010498688,0.328083989501312
1,156,"transfer",100,4,3,"left","Right",2163.18,NA,NA,3,24,21,3,0,3,2,0.400679117147708,0.599320882852292
1,157,"transfer",100,5,2,"left","Left",1198.31,NA,NA,5,27,18,4,1,5,1,0.565217391304348,0.434782608695652
1,158,"transfer",100,3,4,"right","Left",3962.39,NA,NA,3,21,24,3,0,3,1,0.640636297903109,0.359363702096891
1,159,"transfer",100,4,5,"right","Right",1729.19,NA,NA,5,24,27,4,1,5,2,0.369721115537849,0.630278884462151
1,160,"transfer",100,5,8,"right","Left",2224.61,NA,NA,5,27,36,7,0,5,1,0.571844095404305,0.428155904595695
1,161,"transfer",100,8,4,"left","Left",2328.19,NA,NA,8,36,24,7,1,8,1,0.475026567481403,0.524973432518597
1,162,"transfer",100,8,6,"left","Right",1574.52,NA,NA,6,36,30,7,0,6,2,0.743026204564666,0.256973795435334
1,163,"transfer",100,1,3,"right","Right",1093.19,NA,NA,3,15,21,2,1,3,2,0.405475880052151,0.594524119947849
1,164,"transfer",100,8,1,"left","Left",1007.21,NA,NA,8,36,15,7,1,8,1,0.605150214592275,0.394849785407725
1,165,"transfer",100,8,3,"left","Right",1784.69,NA,NA,3,36,21,7,0,3,2,0.545722713864307,0.454277286135693
1,166,"transfer",100,7,8,"right","Left",1771.1,NA,NA,7,33,36,7,0,7,1,0.686813186813187,0.313186813186813
1,167,"transfer",100,3,1,"left","Left",804.44,NA,NA,3,21,15,2,1,3,1,0.665369649805447,0.334630350194553
1,168,"transfer",100,2,7,"right","Right",850.35,NA,NA,7,18,33,6,1,7,2,0.280575539568345,0.719424460431655
1,169,"transfer",100,6,1,"left","Left",1055.18,NA,NA,6,30,15,5,1,6,1,0.651474530831099,0.348525469168901
1,170,"transfer",100,2,8,"right","Right",941.35,NA,NA,8,18,36,7,1,8,2,0.477272727272727,0.522727272727273
1,171,"transfer",100,1,6,"right","Right",964.28,NA,NA,6,15,30,5,1,6,2,0.295392953929539,0.704607046070461
1,172,"transfer",100,5,1,"left","Left",874.11,NA,NA,5,27,15,4,1,5,1,0.664473684210526,0.335526315789474
1,173,"transfer",100,1,4,"right","Right",710.4,NA,NA,4,15,24,3,1,4,2,0.279909706546275,0.720090293453725
1,174,"transfer",100,4,2,"left","Left",652.97,NA,NA,4,24,18,3,1,4,1,0.538028169014084,0.461971830985915
1,175,"transfer",100,5,1,"left","Left",1053.27,NA,NA,5,27,15,4,1,5,1,0.444816053511706,0.555183946488294
1,176,"transfer",100,6,5,"left","Left",2666.43,NA,NA,6,30,27,5,1,6,1,0.574677320221266,0.425322679778734
1,177,"transfer",100,1,2,"right","Right",1192.8,NA,NA,2,15,18,1,1,2,2,0.468313641245972,0.531686358754028
1,178,"transfer",100,7,2,"left","Left",1256.75,NA,NA,7,33,18,6,1,7,1,0.625165562913907,0.374834437086093
1,179,"transfer",100,4,8,"right","Left",3898.92,NA,NA,4,24,36,7,0,4,1,0.502507522567703,0.497492477432297
1,180,"transfer",100,3,8,"right","Left",2140.91,NA,NA,3,21,36,7,0,3,1,0.682775712515489,0.317224287484511
1,181,"transfer",100,1,6,"right","Right",1232.33,NA,NA,6,15,30,5,1,6,2,0.541905855338691,0.458094144661309
1,182,"transfer",100,3,8,"right","Right",4184.43,NA,NA,8,21,36,7,1,8,2,0.521793275217933,0.478206724782067
1,183,"transfer",100,1,5,"right","Right",923.98,NA,NA,5,15,27,4,1,5,2,0.433333333333333,0.566666666666667
1,184,"transfer",100,1,7,"right","Right",1024.26,NA,NA,7,15,33,6,1,7,2,0.462517680339463,0.537482319660537
1,185,"transfer",100,1,5,"right","Right",927.61,NA,NA,5,15,27,4,1,5,2,0.1794500723589,0.8205499276411
1,186,"transfer",100,1,8,"right","Right",921.97,NA,NA,8,15,36,7,1,8,2,0.206303724928367,0.793696275071633
1,187,"transfer",100,7,3,"left","Right",3103.7,NA,NA,3,33,21,6,0,3,2,0.478867102396514,0.521132897603486
1,188,"transfer",100,2,3,"right","Right",1093.65,NA,NA,3,18,21,2,1,3,2,0.0769230769230769,0.923076923076923
1,189,"transfer",100,4,1,"left","Left",992.57,NA,NA,4,24,15,3,1,4,1,0.694964028776978,0.305035971223022
1,190,"transfer",100,5,3,"left","Left",2383.25,NA,NA,5,27,21,4,1,5,1,0.482045039561777,0.517954960438223
1,191,"transfer",100,1,7,"right","Right",1487.63,NA,NA,7,15,33,6,1,7,2,0.456913827655311,0.543086172344689
1,192,"transfer",100,3,5,"right","Right",2495.68,NA,NA,5,21,27,4,1,5,2,0.768292682926829,0.231707317073171
1,193,"transfer",100,7,2,"left","Left",1097.66,NA,NA,7,33,18,6,1,7,1,0.686274509803922,0.313725490196078
1,194,"transfer",100,1,2,"right","Right",1111.79,NA,NA,2,15,18,1,1,2,2,0.657701711491443,0.342298288508557
1,195,"transfer",100,6,3,"left","Left",2326.38,NA,NA,6,30,21,5,1,6,1,0.347849176845459,0.652150823154541
1,196,"transfer",100,8,2,"left","Left",1772.13,NA,NA,8,36,18,7,1,8,1,0.804281345565749,0.195718654434251
1,197,"transfer",100,5,6,"right","Right",2513.46,NA,NA,6,27,30,5,1,6,2,0.436018957345972,0.563981042654028
1,198,"transfer",100,8,5,"left","Right",2347.91,NA,NA,5,36,27,7,0,5,2,0.436170212765957,0.563829787234043
1,199,"transfer",100,3,5,"right","Right",3095.94,NA,NA,5,21,27,4,1,5,2,0.552960800667223,0.447039199332777
1,200,"transfer",100,8,2,"left","Left",1517.31,NA,NA,8,36,18,7,1,8,1,0.672072072072072,0.327927927927928
1,201,"transfer",100,5,8,"right","Left",2444.22,NA,NA,5,27,36,7,0,5,1,0.303872889771599,0.696127110228401
1,202,"transfer",100,7,3,"left","Left",2242,NA,NA,7,33,21,6,1,7,1,0.75910821098423,0.240891789015769
1,203,"transfer",100,2,5,"right","Right",1231.12,NA,NA,5,18,27,4,1,5,2,0.158323632130384,0.841676367869616
1,204,"transfer",100,7,5,"left","Right",4016.92,NA,NA,5,33,27,6,0,5,2,0.57222029788708,0.42777970211292
1,205,"transfer",100,6,7,"right","Left",1758.54,NA,NA,6,30,33,6,0,6,1,0.768019884009942,0.231980115990058
1,206,"transfer",100,7,1,"left","Left",1164.39,NA,NA,7,33,15,6,1,7,1,0.523926380368098,0.476073619631902
1,207,"transfer",100,2,6,"right","Right",1818.2,NA,NA,6,18,30,5,1,6,2,0.416666666666667,0.583333333333333
1,208,"transfer",100,6,4,"left","Left",1489.71,NA,NA,6,30,24,5,1,6,1,0.228373702422145,0.771626297577855
1,209,"transfer",100,3,2,"left","Left",1143.7,NA,NA,3,21,18,2,1,3,1,0.86052303860523,0.13947696139477
1,210,"transfer",100,8,7,"left","Right",2466.83,NA,NA,7,36,33,7,0,7,2,0.472316384180791,0.527683615819209
1,211,"transfer",100,7,8,"right","Left",3068.26,NA,NA,7,33,36,7,0,7,1,0.508351177730193,0.491648822269807
1,212,"transfer",100,6,4,"left","Left",1864.25,NA,NA,6,30,24,5,1,6,1,0.56309963099631,0.43690036900369
1,213,"transfer",100,6,2,"left","Left",772.93,NA,NA,6,30,18,5,1,6,1,0.385342789598109,0.614657210401891
1,214,"transfer",100,8,1,"left","Left",1402.12,NA,NA,8,36,15,7,1,8,1,0.317073170731707,0.682926829268293
1,215,"transfer",100,3,6,"right","Right",1472.34,NA,NA,6,21,30,5,1,6,2,0.847107438016529,0.152892561983471
1,216,"transfer",100,2,8,"right","Right",989.18,NA,NA,8,18,36,7,1,8,2,0.401438848920863,0.598561151079137
1,217,"transfer",100,5,2,"left","Left",1281.11,NA,NA,5,27,18,4,1,5,1,0.73475935828877,0.26524064171123
1,218,"transfer",100,2,7,"right","Right",1104.74,NA,NA,7,18,33,6,1,7,2,0.192893401015228,0.807106598984772
1,219,"transfer",100,1,4,"right","Right",985.55,NA,NA,4,15,24,3,1,4,2,0.259904912836767,0.740095087163233
1,220,"transfer",100,4,6,"right","Right",1208.62,NA,NA,6,24,30,5,1,6,2,0.724770642201835,0.275229357798165
1,221,"transfer",100,8,5,"left","Right",3094.38,NA,NA,5,36,27,7,0,5,2,0.309252217997465,0.690747782002535
1,222,"transfer",100,1,8,"right","Right",1067.97,NA,NA,8,15,36,7,1,8,2,0.647552447552448,0.352447552447552
1,223,"transfer",100,6,8,"right","Left",1549.77,NA,NA,6,30,36,7,0,6,1,0.305309734513274,0.694690265486726
1,224,"transfer",100,2,4,"right","Right",2212.4,NA,NA,4,18,24,3,1,4,2,0.538656527249683,0.461343472750317
1,225,"transfer",100,4,5,"right","Right",2404.09,NA,NA,5,24,27,4,1,5,2,0.363912054586808,0.636087945413192
1,226,"transfer",100,7,6,"left","Right",2967.4,NA,NA,6,33,30,6,0,6,2,0.644142167617376,0.355857832382624
1,227,"transfer",100,3,4,"right","Right",4651.95,NA,NA,4,21,24,3,1,4,2,0.471680594243268,0.528319405756732
1,228,"transfer",100,2,6,"right","Right",1265.33,NA,NA,6,18,30,5,1,6,2,0.203850509626274,0.796149490373726
1,229,"transfer",100,8,6,"left","Right",2908.57,NA,NA,6,36,30,7,0,6,2,0.686926104066463,0.313073895933537
1,230,"transfer",100,4,7,"right","Right",3380.39,NA,NA,7,24,33,6,1,7,2,0.738766184310739,0.261233815689261
1,231,"transfer",100,8,4,"left","Right",4076.66,NA,NA,4,36,24,7,0,4,2,0.60711793440335,0.39288206559665
1,232,"transfer",100,6,2,"left","Left",923.91,NA,NA,6,30,18,5,1,6,1,0.758513931888545,0.241486068111455
2,1,"learning",1,2,1,"left","Right",3142.9,19,17,1,18,15,1,0,1,2,0.64714494875549,0.35285505124451
2,2,"learning",4,7,8,"right","Left",2836.69,34,37,7,33,36,7,0,7,1,0.683340582862114,0.316659417137886
2,3,"learning",2,4,3,"left","Left",1671.55,22,24,4,24,21,3,1,4,1,0.64956590370955,0.35043409629045
2,4,"learning",3,6,5,"left","Right",1789.13,32,26,5,30,27,5,0,5,2,0.362995594713656,0.637004405286344
2,5,"learning",3,6,5,"left","Left",3192.82,27,30,6,30,27,5,1,6,1,0.692307692307692,0.307692307692308
2,6,"learning",2,3,4,"right","Left",845.1,22,25,3,21,24,3,0,3,1,1,0
2,7,"learning",4,7,8,"right","Right",3800.35,34,37,8,33,36,7,1,8,2,0.441597588545592,0.558402411454408
2,8,"learning",1,1,2,"right","Right",2210.27,16,18,2,15,18,1,1,2,2,0.481707317073171,0.518292682926829
2,9,"learning",2,3,4,"right","Left",2217.74,18,24,3,21,24,3,0,3,1,0.568916619398752,0.431083380601248
2,10,"learning",3,5,6,"right","Right",1412.3,28,26,6,27,30,5,1,6,2,0,1
2,11,"learning",3,5,6,"right","Left",863.38,29,31,5,27,30,5,0,5,1,0.581920903954802,0.418079096045198
2,12,"learning",1,1,2,"right","Right",1832.34,19,17,2,15,18,1,1,2,2,0.55719557195572,0.44280442804428
2,13,"learning",4,7,8,"right","Right",1736.15,34,35,8,33,36,7,1,8,2,0.351464435146443,0.648535564853556
2,14,"learning",3,5,6,"right","Left",2135.25,28,30,5,27,30,5,0,5,1,0.4609375,0.5390625
2,15,"learning",2,3,4,"right","Right",3035.44,18,27,4,21,24,3,1,4,2,0.519305019305019,0.480694980694981
2,16,"learning",2,4,3,"left","Left",3862.04,26,20,4,24,21,3,1,4,1,0.668683812405446,0.331316187594554
2,17,"learning",1,2,1,"left","Right",1297.95,18,14,1,18,15,1,0,1,2,0.67027027027027,0.32972972972973
2,18,"learning",2,4,3,"left","Left",4450.55,23,21,4,24,21,3,1,4,1,0.727406860936924,0.272593139063076
2,19,"learning",4,7,8,"right","Right",1395.4,34,36,8,33,36,7,1,8,2,0.585585585585586,0.414414414414414
2,20,"learning",4,8,7,"left","Left",4157.79,36,32,8,36,33,7,1,8,1,0.641966250917095,0.358033749082905
2,21,"learning",2,4,3,"left","Left",2081.56,26,22,4,24,21,3,1,4,1,0.827586206896552,0.172413793103448
2,22,"learning",3,6,5,"left","Left",872.73,32,25,6,30,27,5,1,6,1,0.455357142857143,0.544642857142857
2,23,"learning",3,5,6,"right","Right",1202.23,28,31,6,27,30,5,1,6,2,0.582375478927203,0.417624521072797
2,24,"learning",4,7,8,"right","Right",990.04,30,34,8,33,36,7,1,8,2,0.375690607734807,0.624309392265193
2,25,"learning",1,1,2,"right","Right",1846.09,16,19,2,15,18,1,1,2,2,0.380032206119163,0.619967793880837
2,26,"learning",4,8,7,"left","Left",1585.16,38,32,8,36,33,7,1,8,1,0.511002444987775,0.488997555012225
2,27,"learning",3,5,6,"right","Right",944.77,25,28,6,27,30,5,1,6,2,0.336380255941499,0.663619744058501
2,28,"learning",1,2,1,"left","Left",2137.1,20,17,2,18,15,1,1,2,1,0.593008739076155,0.406991260923845
2,29,"learning",4,8,7,"left","Right",574.32,37,35,7,36,33,7,0,7,2,0.584717607973422,0.415282392026578
2,30,"learning",3,5,6,"right","Right",786.64,24,28,6,27,30,5,1,6,2,0.405156537753223,0.594843462246777
2,31,"learning",3,6,5,"left","Left",681.13,31,27,6,30,27,5,1,6,1,0.797250859106529,0.202749140893471
2,32,"learning",4,8,7,"left","Left",904.98,36,30,8,36,33,7,1,8,1,0.340425531914894,0.659574468085106
2,33,"learning",2,4,3,"left","Left",1034.97,21,24,4,24,21,3,1,4,1,0.451923076923077,0.548076923076923
2,34,"learning",4,8,7,"left","Left",697.21,38,34,8,36,33,7,1,8,1,0.523560209424084,0.476439790575916
2,35,"learning",2,4,3,"left","Left",1888.61,26,23,4,24,21,3,1,4,1,0.492176386913229,0.507823613086771
2,36,"learning",3,5,6,"right","Right",599.43,28,30,6,27,30,5,1,6,2,0.440633245382586,0.559366754617414
2,37,"learning",4,8,7,"left","Left",580.14,38,32,8,36,33,7,1,8,1,1,0
2,38,"learning",4,7,8,"right","Right",2866.84,37,35,8,33,36,7,1,8,2,0.309333333333333,0.690666666666667
2,39,"learning",1,1,2,"right","Right",1657.6,12,21,2,15,18,1,1,2,2,0.395833333333333,0.604166666666667
2,40,"learning",2,4,3,"left","Left",1345.7,24,22,4,24,21,3,1,4,1,0.518728717366629,0.481271282633371
2,41,"learning",1,1,2,"right","Right",1221.79,12,16,2,15,18,1,1,2,2,0.546099290780142,0.453900709219858
2,42,"learning",2,3,4,"right","Right",2215.06,22,23,4,21,24,3,1,4,2,0.640899508081518,0.359100491918482
2,43,"learning",4,7,8,"right","Right",1044.16,32,35,8,33,36,7,1,8,2,0.455295735900963,0.544704264099037
2,44,"learning",4,7,8,"right","Right",697.76,30,35,8,33,36,7,1,8,2,0,1
2,45,"learning",1,1,2,"right","Right",1275.19,16,14,2,15,18,1,1,2,2,0.617044228694714,0.382955771305286
2,46,"learning",1,1,2,"right","Right",1132.92,16,19,2,15,18,1,1,2,2,0.304568527918782,0.695431472081218
2,47,"learning",4,8,7,"left","Left",777.79,34,36,8,36,33,7,1,8,1,0.327731092436975,0.672268907563025
2,48,"learning",2,4,3,"left","Left",1224.56,24,20,4,24,21,3,1,4,1,0.597765363128492,0.402234636871508
2,49,"learning",3,6,5,"left","Left",1344.89,31,29,6,30,27,5,1,6,1,0.761772853185596,0.238227146814404
2,50,"learning",1,2,1,"left","Left",6181.06,18,16,2,18,15,1,1,2,1,0.503297283038776,0.496702716961224
2,51,"learning",1,1,2,"right","Right",2872.08,12,17,2,15,18,1,1,2,2,0.657799274486094,0.342200725513906
2,52,"learning",2,3,4,"right","Right",3159.87,22,20,4,21,24,3,1,4,2,0.703188879803761,0.296811120196239
2,53,"learning",1,1,2,"right","Right",795.46,16,19,2,15,18,1,1,2,2,0.58659217877095,0.41340782122905
2,54,"learning",1,2,1,"left","Left",1224.39,20,14,2,18,15,1,1,2,1,0.285106382978723,0.714893617021277
2,55,"learning",2,3,4,"right","Left",1443.16,25,23,3,21,24,3,0,3,1,0.680351906158358,0.319648093841642
2,56,"learning",1,2,1,"left","Left",787.05,15,18,2,18,15,1,1,2,1,0.303501945525292,0.696498054474708
2,57,"learning",2,3,4,"right","Left",2879.25,23,25,3,21,24,3,0,3,1,0.523008411677387,0.476991588322613
2,58,"learning",4,8,7,"left","Left",1265.63,36,32,8,36,33,7,1,8,1,0.662714097496706,0.337285902503294
2,59,"learning",2,3,4,"right","Right",2435.24,22,24,4,21,24,3,1,4,2,0.598311218335344,0.401688781664656
2,60,"learning",2,4,3,"left","Left",3781.74,24,18,4,24,21,3,1,4,1,0.648213034337771,0.351786965662228
2,61,"learning",1,1,2,"right","Right",4633.26,16,17,2,15,18,1,1,2,2,0.51913357400722,0.48086642599278
2,62,"learning",3,6,5,"left","Left",807.7,29,26,6,30,27,5,1,6,1,0.5546875,0.4453125
2,63,"learning",2,4,3,"left","Left",1853.95,23,20,4,24,21,3,1,4,1,0.672399672399672,0.327600327600328
2,64,"learning",4,7,8,"right","Right",836.21,30,39,8,33,36,7,1,8,2,0.656616415410385,0.343383584589615
2,65,"learning",3,6,5,"left","Left",713.26,28,30,6,30,27,5,1,6,1,0.706401766004415,0.293598233995585
2,66,"learning",1,1,2,"right","Right",3048.35,14,17,2,15,18,1,1,2,2,0.66219614417435,0.33780385582565
2,67,"learning",1,2,1,"left","Left",1510.5,18,14,2,18,15,1,1,2,1,0.647921760391198,0.352078239608802
2,68,"learning",3,6,5,"left","Left",3534.36,32,26,6,30,27,5,1,6,1,0.296182536200088,0.703817463799912
2,69,"learning",4,7,8,"right","Right",926.15,31,34,8,33,36,7,1,8,2,0.320987654320988,0.679012345679012
2,70,"learning",2,4,3,"left","Left",2218.24,26,19,4,24,21,3,1,4,1,0.808471454880295,0.191528545119705
2,71,"learning",4,8,7,"left","Right",5.05,38,35,7,36,33,7,0,7,2,0,0
2,72,"learning",2,3,4,"right","Right",2910.85,20,23,4,21,24,3,1,4,2,0.367777309152256,0.632222690847744
2,73,"learning",3,6,5,"left","Left",660.53,32,28,6,30,27,5,1,6,1,0.742138364779874,0.257861635220126
2,74,"learning",1,1,2,"right","Right",988.53,16,18,2,15,18,1,1,2,2,0.496339677891654,0.503660322108346
2,75,"learning",2,3,4,"right","Right",958,18,23,4,21,24,3,1,4,2,0,1
2,76,"learning",2,4,3,"left","Left",1432.4,25,23,4,24,21,3,1,4,1,0.495890410958904,0.504109589041096
2,77,"learning",2,4,3,"left","Left",1225,25,21,4,24,21,3,1,4,1,0.435087719298246,0.564912280701754
2,78,"learning",4,7,8,"right","Right",601.43,30,36,8,33,36,7,1,8,2,0.544959128065395,0.455040871934605
2,79,"learning",1,1,2,"right","Right",1475.84,12,18,2,15,18,1,1,2,2,0.556874381800198,0.443125618199802
2,80,"learning",4,8,7,"left","Left",1717.97,33,36,8,36,33,7,1,8,1,0.441241685144124,0.558758314855876
2,81,"learning",1,2,1,"left","Left",4256.85,17,14,2,18,15,1,1,2,1,0.599171107164002,0.400828892835998
2,82,"learning",3,5,6,"right","Right",1691.54,24,29,6,27,30,5,1,6,2,0.71850699844479,0.28149300155521
2,83,"learning",4,7,8,"right","Right",853.73,35,37,8,33,36,7,1,8,2,0.310679611650485,0.689320388349515
2,84,"learning",3,5,6,"right","Right",729.58,24,30,6,27,30,5,1,6,2,0.533333333333333,0.466666666666667
2,85,"learning",1,2,1,"left","Left",940.54,19,15,2,18,15,1,1,2,1,0.597722960151803,0.402277039848197
2,86,"learning",2,3,4,"right","Right",811.09,22,25,4,21,24,3,1,4,2,0,1
2,87,"learning",2,4,3,"left","Left",928.71,24,20,4,24,21,3,1,4,1,0.284263959390863,0.715736040609137
2,88,"learning",4,7,8,"right","Right",660.43,34,32,8,33,36,7,1,8,2,0,1
2,89,"learning",3,5,6,"right","Right",759.71,28,31,6,27,30,5,1,6,2,0.324324324324324,0.675675675675676
2,90,"learning",4,8,7,"left","Left",1702.34,38,31,8,36,33,7,1,8,1,0.79672131147541,0.20327868852459
2,91,"learning",1,1,2,"right","Right",751.55,13,16,2,15,18,1,1,2,2,0.37914691943128,0.62085308056872
2,92,"learning",4,8,7,"left","Left",828.7,35,32,8,36,33,7,1,8,1,0.54017094017094,0.45982905982906
2,93,"learning",3,5,6,"right","Right",687.48,28,31,6,27,30,5,1,6,2,0.302325581395349,0.697674418604651
2,94,"learning",3,6,5,"left","Left",530.66,30,28,6,30,27,5,1,6,1,0.676328502415459,0.323671497584541
2,95,"learning",1,2,1,"left","Left",754.65,16,18,2,18,15,1,1,2,1,0.428571428571429,0.571428571428571
2,96,"learning",1,2,1,"left","Left",989.58,20,16,2,18,15,1,1,2,1,0.416,0.584
2,97,"learning",2,3,4,"right","Right",869.55,18,22,4,21,24,3,1,4,2,0.511221945137157,0.488778054862843
2,98,"learning",1,2,1,"left","Left",549.46,17,15,2,18,15,1,1,2,1,0,1
2,99,"learning",3,6,5,"left","Left",1106.07,30,26,6,30,27,5,1,6,1,0.603351955307263,0.396648044692737
2,100,"learning",3,6,5,"left","Left",649.29,30,24,6,30,27,5,1,6,1,1,0
2,101,"learning",4,8,7,"left","Left",1208.51,36,34,8,36,33,7,1,8,1,0.490196078431373,0.509803921568627
2,102,"learning",4,8,7,"left","Left",1709.75,37,33,8,36,33,7,1,8,1,0.184254606365159,0.815745393634841
2,103,"learning",4,7,8,"right","Right",1415.71,34,36,8,33,36,7,1,8,2,0.50207468879668,0.49792531120332
2,104,"learning",3,5,6,"right","Right",2275.12,28,29,6,27,30,5,1,6,2,0.51456844420011,0.48543155579989
2,105,"learning",2,3,4,"right","Right",3195.12,22,24,4,21,24,3,1,4,2,0.460918614020951,0.539081385979049
2,106,"learning",1,1,2,"right","Right",2034.82,17,19,2,15,18,1,1,2,2,0.505384063173008,0.494615936826992
2,107,"learning",1,2,1,"left","Left",1107.56,20,14,2,18,15,1,1,2,1,0.348134991119005,0.651865008880995
2,108,"learning",1,2,1,"left","Left",727.16,18,12,2,18,15,1,1,2,1,0.45821325648415,0.54178674351585
2,109,"learning",2,4,3,"left","Left",1633.15,26,20,4,24,21,3,1,4,1,0.472013366750209,0.527986633249791
2,110,"learning",4,7,8,"right","Right",800.27,34,37,8,33,36,7,1,8,2,0.266094420600858,0.733905579399142
2,111,"learning",3,5,6,"right","Right",802.66,26,29,6,27,30,5,1,6,2,0.356846473029046,0.643153526970954
2,112,"learning",2,3,4,"right","Right",1639.04,19,22,4,21,24,3,1,4,2,0.489233419465978,0.510766580534022
2,113,"learning",3,6,5,"left","Left",761.69,32,29,6,30,27,5,1,6,1,0.558052434456929,0.441947565543071
2,114,"learning",3,5,6,"right","Right",1203.82,24,33,6,27,30,5,1,6,2,0.595419847328244,0.404580152671756
2,115,"learning",2,3,4,"right","Right",3882.07,22,25,4,21,24,3,1,4,2,0.389792484576556,0.610207515423444
2,116,"learning",3,6,5,"left","Left",971.82,30,26,6,30,27,5,1,6,1,1,0
2,117,"learning",3,5,6,"right","Right",769.62,31,29,6,27,30,5,1,6,2,0,1
2,118,"learning",3,6,5,"left","Left",605.67,29,27,6,30,27,5,1,6,1,1,0
2,119,"learning",1,2,1,"left","Left",980.45,20,13,2,18,15,1,1,2,1,1,0
2,120,"learning",4,8,7,"left","Left",1142.34,35,33,8,36,33,7,1,8,1,0.55297157622739,0.44702842377261
2,121,"transfer",100,6,5,"left","Left",840.44,NA,NA,6,30,27,5,1,6,1,0.46031746031746,0.53968253968254
2,122,"transfer",100,4,2,"left","Right",2219.68,NA,NA,2,24,18,3,0,2,2,0.411842980705256,0.588157019294744
2,123,"transfer",100,3,1,"left","Right",4895.29,NA,NA,1,21,15,2,0,1,2,0.550639134709931,0.449360865290069
2,124,"transfer",100,1,3,"right","Left",3170.11,NA,NA,1,15,21,2,0,1,1,0.63855421686747,0.36144578313253
2,125,"transfer",100,7,5,"left","Right",1710.58,NA,NA,5,33,27,6,0,5,2,0.225196850393701,0.774803149606299
2,126,"transfer",100,2,3,"right","Left",3224.46,NA,NA,2,18,21,2,0,2,1,0.568123393316195,0.431876606683805
2,127,"transfer",100,2,1,"left","Left",1895.92,NA,NA,2,18,15,1,1,2,1,0.530791788856305,0.469208211143695
2,128,"transfer",100,6,2,"left","Left",2838.22,NA,NA,6,30,18,5,1,6,1,0.262170611880304,0.737829388119696
2,129,"transfer",100,3,7,"right","Left",2187.24,NA,NA,3,21,33,6,0,3,1,0.583699059561129,0.416300940438871
2,130,"transfer",100,7,5,"left","Right",1377.12,NA,NA,5,33,27,6,0,5,2,0.680952380952381,0.319047619047619
2,131,"transfer",100,7,4,"left","Right",1114.2,NA,NA,4,33,24,6,0,4,2,0.620599739243807,0.379400260756193
2,132,"transfer",100,7,8,"right","Right",1290.41,NA,NA,8,33,36,7,1,8,2,0.499404052443385,0.500595947556615
2,133,"transfer",100,2,4,"right","Left",4044.32,NA,NA,2,18,24,3,0,2,1,0.536158012105766,0.463841987894234
2,134,"transfer",100,5,7,"right","Left",945.66,NA,NA,5,27,33,6,0,5,1,0.32484076433121,0.67515923566879
2,135,"transfer",100,1,5,"right","Right",1768.22,NA,NA,5,15,27,4,1,5,2,0.48548026805659,0.51451973194341
2,136,"transfer",100,3,7,"right","Left",1760.65,NA,NA,3,21,33,6,0,3,1,0.353846153846154,0.646153846153846
2,137,"transfer",100,7,2,"left","Right",3159.27,NA,NA,2,33,18,6,0,2,2,0.569791240278346,0.430208759721654
2,138,"transfer",100,7,8,"right","Right",944.36,NA,NA,8,33,36,7,1,8,2,0.241912798874824,0.758087201125176
2,139,"transfer",100,3,4,"right","Right",2442.79,NA,NA,4,21,24,3,1,4,2,0.646706586826347,0.353293413173653
2,140,"transfer",100,8,2,"left","Right",2023.3,NA,NA,2,36,18,7,0,2,2,0.432671081677704,0.567328918322296
2,141,"transfer",100,6,8,"right","Left",835.92,NA,NA,6,30,36,7,0,6,1,0.544642857142857,0.455357142857143
2,142,"transfer",100,8,3,"left","Right",1093.72,NA,NA,3,36,21,7,0,3,2,0.364653243847875,0.635346756152125
2,143,"transfer",100,7,2,"left","Right",3863.61,NA,NA,2,33,18,6,0,2,2,0.548001366586949,0.451998633413051
2,144,"transfer",100,2,6,"right","Right",1017.92,NA,NA,6,18,30,5,1,6,2,0.628205128205128,0.371794871794872
2,145,"transfer",100,6,8,"right","Left",1001.82,NA,NA,6,30,36,7,0,6,1,0.335625859697387,0.664374140302613
2,146,"transfer",100,5,4,"left","Right",5834.95,NA,NA,4,27,24,4,0,4,2,0.578540772532189,0.421459227467811
2,147,"transfer",100,2,7,"right","Left",4743.45,NA,NA,2,18,33,6,0,2,1,0.637676403019363,0.362323596980637
2,148,"transfer",100,4,3,"left","Left",5029.44,NA,NA,4,24,21,3,1,4,1,0.600206611570248,0.399793388429752
2,149,"transfer",100,4,8,"right","Left",1249.32,NA,NA,4,24,36,7,0,4,1,0.452282157676349,0.547717842323652
2,150,"transfer",100,4,6,"right","Right",1784.72,NA,NA,6,24,30,5,1,6,2,0.463706233988044,0.536293766011956
2,151,"transfer",100,8,1,"left","Left",4003.61,NA,NA,8,36,15,7,1,8,1,0.453537658950114,0.546462341049886
2,152,"transfer",100,2,6,"right","Right",1508.16,NA,NA,6,18,30,5,1,6,2,0.468431771894094,0.531568228105906
2,153,"transfer",100,5,8,"right","Left",4730.47,NA,NA,5,27,36,7,0,5,1,0.669724770642202,0.330275229357798
2,154,"transfer",100,5,2,"left","Right",840.73,NA,NA,2,27,18,4,0,2,2,0.443438914027149,0.556561085972851
2,155,"transfer",100,1,8,"right","Left",1935.73,NA,NA,1,15,36,7,0,1,1,0.824884792626728,0.175115207373272
2,156,"transfer",100,5,6,"right","Right",2442.04,NA,NA,6,27,30,5,1,6,2,0.571121846484165,0.428878153515835
2,157,"transfer",100,5,1,"left","Left",1349.03,NA,NA,5,27,15,4,1,5,1,0.542372881355932,0.457627118644068
2,158,"transfer",100,3,2,"left","Right",1463.1,NA,NA,2,21,18,2,0,2,2,0.638095238095238,0.361904761904762
2,159,"transfer",100,4,1,"left","Left",1567.29,NA,NA,4,24,15,3,1,4,1,0.622895622895623,0.377104377104377
2,160,"transfer",100,2,7,"right","Left",1677.02,NA,NA,2,18,33,6,0,2,1,0.48323793949305,0.51676206050695
2,161,"transfer",100,8,3,"left","Left",2264.75,NA,NA,8,36,21,7,1,8,1,0.365661861074705,0.634338138925295
2,162,"transfer",100,4,8,"right","Left",747.04,NA,NA,4,24,36,7,0,4,1,1,0
2,163,"transfer",100,1,7,"right","Left",2176.67,NA,NA,1,15,33,6,0,1,1,0.667621776504298,0.332378223495702
2,164,"transfer",100,6,2,"left","Left",1173.85,NA,NA,6,30,18,5,1,6,1,0.602051282051282,0.397948717948718
2,165,"transfer",100,8,4,"left","Right",1381,NA,NA,4,36,24,7,0,4,2,0.431535269709544,0.568464730290456
2,166,"transfer",100,8,6,"left","Right",715.21,NA,NA,6,36,30,7,0,6,2,0.572093023255814,0.427906976744186
2,167,"transfer",100,8,5,"left","Right",1474.7,NA,NA,5,36,27,7,0,5,2,0.439050701186624,0.560949298813377
2,168,"transfer",100,2,1,"left","Left",854.25,NA,NA,2,18,15,1,1,2,1,0.363636363636364,0.636363636363636
2,169,"transfer",100,1,4,"right","Right",1344.55,NA,NA,4,15,24,3,1,4,2,0.23859649122807,0.76140350877193
2,170,"transfer",100,3,8,"right","Left",3208.91,NA,NA,3,21,36,7,0,3,1,0.826741996233522,0.173258003766478
2,171,"transfer",100,5,3,"left","Left",7362.34,NA,NA,5,27,21,4,1,5,1,0.67420814479638,0.32579185520362
2,172,"transfer",100,6,1,"left","Left",1984.53,NA,NA,6,30,15,5,1,6,1,0.367483296213808,0.632516703786192
2,173,"transfer",100,1,5,"right","Right",1552.24,NA,NA,5,15,27,4,1,5,2,0.554744525547445,0.445255474452555
2,174,"transfer",100,1,2,"right","Right",1063.69,NA,NA,2,15,18,1,1,2,2,0.596685082872928,0.403314917127072
2,175,"transfer",100,2,5,"right","Right",1703.35,NA,NA,5,18,27,4,1,5,2,0.4233907524932,0.5766092475068
2,176,"transfer",100,1,8,"right","Left",2535.8,NA,NA,1,15,36,7,0,1,1,0.678135405105438,0.321864594894562
2,177,"transfer",100,8,7,"left","Left",1216.88,NA,NA,8,36,33,7,1,8,1,0.391891891891892,0.608108108108108
2,178,"transfer",100,4,7,"right","Left",1378.62,NA,NA,4,24,33,6,0,4,1,0.464912280701754,0.535087719298246
2,179,"transfer",100,5,1,"left","Left",926.47,NA,NA,5,27,15,4,1,5,1,0.288888888888889,0.711111111111111
2,180,"transfer",100,1,4,"right","Right",1185.12,NA,NA,4,15,24,3,1,4,2,0,1
2,181,"transfer",100,2,3,"right","Left",681.55,NA,NA,2,18,21,2,0,2,1,0.573134328358209,0.426865671641791
2,182,"transfer",100,3,6,"right","Right",976.64,NA,NA,6,21,30,5,1,6,2,0.437357630979499,0.562642369020501
2,183,"transfer",100,3,6,"right","Right",778.76,NA,NA,6,21,30,5,1,6,2,0,1
2,184,"transfer",100,1,2,"right","Right",904.43,NA,NA,2,15,18,1,1,2,2,0,1
2,185,"transfer",100,7,4,"left","Right",1839.85,NA,NA,4,33,24,6,0,4,2,0.396128071481757,0.603871928518243
2,186,"transfer",100,8,5,"left","Right",730.92,NA,NA,5,36,27,7,0,5,2,0.326732673267327,0.673267326732673
2,187,"transfer",100,5,8,"right","Left",1878.5,NA,NA,5,27,36,7,0,5,1,0.48051948051948,0.519480519480519
2,188,"transfer",100,6,3,"left","Left",715.32,NA,NA,6,30,21,5,1,6,1,0,1
2,189,"transfer",100,5,4,"left","Right",1202.72,NA,NA,4,27,24,4,0,4,2,0.514124293785311,0.485875706214689
2,190,"transfer",100,5,7,"right","Left",4381.55,NA,NA,5,27,33,6,0,5,1,0.55679012345679,0.44320987654321
2,191,"transfer",100,3,1,"left","Right",1517.21,NA,NA,1,21,15,2,0,1,2,0.529718456725756,0.470281543274244
2,192,"transfer",100,1,6,"right","Right",2451.15,NA,NA,6,15,30,5,1,6,2,0.629722921914358,0.370277078085642
2,193,"transfer",100,1,7,"right","Left",1117.41,NA,NA,1,15,33,6,0,1,1,0.406360424028269,0.593639575971731
2,194,"transfer",100,5,3,"left","Left",929.03,NA,NA,5,27,21,4,1,5,1,0.424460431654676,0.575539568345324
2,195,"transfer",100,1,3,"right","Right",4599.06,NA,NA,3,15,21,2,1,3,2,0.527673293927996,0.472326706072004
2,196,"transfer",100,8,7,"left","Left",948.76,NA,NA,8,36,33,7,1,8,1,0.387931034482759,0.612068965517241
2,197,"transfer",100,4,7,"right","Left",908.08,NA,NA,4,24,33,6,0,4,1,0.244701348747592,0.755298651252408
2,198,"transfer",100,2,8,"right","Left",1179.57,NA,NA,2,18,36,7,0,2,1,0.49708963911525,0.50291036088475
2,199,"transfer",100,6,7,"right","Left",670.31,NA,NA,6,30,33,6,0,6,1,0.398104265402844,0.601895734597156
2,200,"transfer",100,6,4,"left","Left",789.23,NA,NA,6,30,24,5,1,6,1,0.550669216061185,0.449330783938815
2,201,"transfer",100,6,7,"right","Left",438.07,NA,NA,6,30,33,6,0,6,1,0.635294117647059,0.364705882352941
2,202,"transfer",100,8,4,"left","Right",1342.24,NA,NA,4,36,24,7,0,4,2,0.552258064516129,0.447741935483871
2,203,"transfer",100,6,1,"left","Left",1253.17,NA,NA,6,30,15,5,1,6,1,0.497751124437781,0.502248875562219
2,204,"transfer",100,6,4,"left","Left",1638.34,NA,NA,6,30,24,5,1,6,1,0.550561797752809,0.449438202247191
2,205,"transfer",100,4,5,"right","Left",576.24,NA,NA,4,24,27,4,0,4,1,0.744186046511628,0.255813953488372
2,206,"transfer",100,8,1,"left","Left",4358.93,NA,NA,8,36,15,7,1,8,1,0.175867956744451,0.824132043255549
2,207,"transfer",100,5,2,"left","Left",803.78,NA,NA,5,27,18,4,1,5,1,0,1
2,208,"transfer",100,3,5,"right","Right",816.18,NA,NA,5,21,27,4,1,5,2,0.727272727272727,0.272727272727273
2,209,"transfer",100,7,6,"left","Right",743.52,NA,NA,6,33,30,6,0,6,2,0,1
2,210,"transfer",100,7,1,"left","Left",1222.26,NA,NA,7,33,15,6,1,7,1,0.512953367875648,0.487046632124352
2,211,"transfer",100,4,5,"right","Right",2050.84,NA,NA,5,24,27,4,1,5,2,0.430622009569378,0.569377990430622
2,212,"transfer",100,5,6,"right","Right",898.41,NA,NA,6,27,30,5,1,6,2,0,1
2,213,"transfer",100,3,8,"right","Left",1817.48,NA,NA,3,21,36,7,0,3,1,0.797701149425287,0.202298850574713
2,214,"transfer",100,4,2,"left","Left",5762.08,NA,NA,4,24,18,3,1,4,1,0.553416746871992,0.446583253128008
2,215,"transfer",100,3,5,"right","Right",1789.77,NA,NA,5,21,27,4,1,5,2,0.544520547945206,0.455479452054795
2,216,"transfer",100,7,1,"left","Right",1194.4,NA,NA,1,33,15,6,0,1,2,0.466225165562914,0.533774834437086
2,217,"transfer",100,7,6,"left","Right",842.37,NA,NA,6,33,30,6,0,6,2,0.296540362438221,0.703459637561779
2,218,"transfer",100,2,4,"right","Left",4187.33,NA,NA,2,18,24,3,0,2,1,0.571814092953523,0.428185907046477
2,219,"transfer",100,6,5,"left","Left",588.73,NA,NA,6,30,27,5,1,6,1,0.576923076923077,0.423076923076923
2,220,"transfer",100,7,3,"left","Right",1202.32,NA,NA,3,33,21,6,0,3,2,0.576312576312576,0.423687423687424
2,221,"transfer",100,3,4,"right","Right",3139.33,NA,NA,4,21,24,3,1,4,2,0.35361653272101,0.64638346727899
2,222,"transfer",100,8,6,"left","Right",1251.87,NA,NA,6,36,30,7,0,6,2,0.549222797927461,0.450777202072539
2,223,"transfer",100,8,2,"left","Right",786.66,NA,NA,2,36,18,7,0,2,2,0.341372912801484,0.658627087198516
2,224,"transfer",100,3,2,"left","Right",902.57,NA,NA,2,21,18,2,0,2,2,0.589285714285714,0.410714285714286
2,225,"transfer",100,4,3,"left","Left",2867.39,NA,NA,4,24,21,3,1,4,1,0.461119366022784,0.538880633977216
2,226,"transfer",100,4,1,"left","Left",1039.91,NA,NA,4,24,15,3,1,4,1,0.237154150197628,0.762845849802372
2,227,"transfer",100,1,6,"right","Right",1534.58,NA,NA,6,15,30,5,1,6,2,0.293607800650054,0.706392199349946
2,228,"transfer",100,6,3,"left","Left",929.73,NA,NA,6,30,21,5,1,6,1,0.4140625,0.5859375
2,229,"transfer",100,2,8,"right","Left",947.25,NA,NA,2,18,36,7,0,2,1,0.692307692307692,0.307692307692308
2,230,"transfer",100,7,3,"left","Right",846.97,NA,NA,3,33,21,6,0,3,2,0,1
2,231,"transfer",100,2,5,"right","Right",2599.39,NA,NA,5,18,27,4,1,5,2,0.478170478170478,0.521829521829522
2,232,"transfer",100,4,6,"right","Right",1249.69,NA,NA,6,24,30,5,1,6,2,0.551357733175915,0.448642266824085
3,1,"learning",1,1,2,"right","Left",1559.26,16,19,1,15,18,1,0,1,1,0.583617747440273,0.416382252559727
3,2,"learning",1,1,2,"right","Right",1230.51,19,17,2,15,18,1,1,2,2,0,0
3,3,"learning",1,1,2,"right","Right",794.85,13,16,2,15,18,1,1,2,2,0,0
3,4,"learning",1,1,2,"right","Left",214.93,16,17,1,15,18,1,0,1,1,0,0
3,5,"learning",1,1,2,"right","Right",260.35,16,14,2,15,18,1,1,2,2,0,1
3,6,"learning",4,7,8,"right","Right",1076.2,37,35,8,33,36,7,1,8,2,0.523206751054852,0.476793248945148
3,7,"learning",2,3,4,"right","Right",1480.95,22,25,4,21,24,3,1,4,2,1,0
3,8,"learning",4,7,8,"right","Left",772.23,34,37,7,33,36,7,0,7,1,0,0
3,9,"learning",1,1,2,"right","Right",940.95,12,17,2,15,18,1,1,2,2,0,0
3,10,"learning",4,7,8,"right","Left",554.39,34,36,7,33,36,7,0,7,1,0,0
3,11,"learning",3,5,6,"right","Right",1158.15,29,31,6,27,30,5,1,6,2,0.63826998689384,0.36173001310616
3,12,"learning",1,2,1,"left","Right",543.62,18,14,1,18,15,1,0,1,2,0,0
3,13,"learning",4,8,7,"left","Right",1525.69,36,32,7,36,33,7,0,7,2,0.626852659110724,0.373147340889276
3,14,"learning",2,3,4,"right","Left",1591.16,22,23,3,21,24,3,0,3,1,0.785837651122625,0.214162348877375
3,15,"learning",1,2,1,"left","Left",1410.49,20,14,2,18,15,1,1,2,1,1,0
3,16,"learning",4,8,7,"left","Right",1693.24,38,34,7,36,33,7,0,7,2,0.591273374888691,0.408726625111309
3,17,"learning",4,8,7,"left","Left",2062.56,38,32,8,36,33,7,1,8,1,0.727051177904143,0.272948822095857
3,18,"learning",2,4,3,"left","Left",1726.34,23,21,4,24,21,3,1,4,1,0.346007604562738,0.653992395437262
3,19,"learning",2,3,4,"right","Left",1154.41,22,20,3,21,24,3,0,3,1,0.478481012658228,0.521518987341772
3,20,"learning",4,7,8,"right","Right",1388.05,34,37,8,33,36,7,1,8,2,0.291115311909263,0.708884688090737
3,21,"learning",1,2,1,"left","Left",1988.55,18,12,2,18,15,1,1,2,1,0.635153129161119,0.364846870838882
3,22,"learning",1,1,2,"right","Right",1511.7,16,19,2,15,18,1,1,2,2,0.397810218978102,0.602189781021898
3,23,"learning",4,7,8,"right","Right",1088.68,30,39,8,33,36,7,1,8,2,0.27906976744186,0.72093023255814
3,24,"learning",1,1,2,"right","Right",1033.71,12,21,2,15,18,1,1,2,2,0.766233766233766,0.233766233766234
3,25,"learning",2,3,4,"right","Left",1847.71,18,24,3,21,24,3,0,3,1,0.672654690618762,0.327345309381238
3,26,"learning",2,3,4,"right","Right",568.96,22,25,4,21,24,3,1,4,2,0,0
3,27,"learning",2,3,4,"right","Left",853.68,19,22,3,21,24,3,0,3,1,0.605405405405405,0.394594594594595
3,28,"learning",2,3,4,"right","Right",421.98,20,23,4,21,24,3,1,4,2,0,1
3,29,"learning",3,5,6,"right","Left",1426.18,24,28,5,27,30,5,0,5,1,0.741156169111303,0.258843830888697
3,30,"learning",3,5,6,"right","Right",549.88,28,31,6,27,30,5,1,6,2,0,1
3,31,"learning",3,6,5,"left","Left",793.37,32,28,6,30,27,5,1,6,1,0,0
3,32,"learning",3,5,6,"right","Right",444.81,25,28,6,27,30,5,1,6,2,0,0
3,33,"learning",3,6,5,"left","Left",514.56,30,24,6,30,27,5,1,6,1,1,0
3,34,"learning",2,4,3,"left","Right",593.31,24,20,3,24,21,3,0,3,2,0,1
3,35,"learning",2,3,4,"right","Right",452.02,18,27,4,21,24,3,1,4,2,0,0
3,36,"learning",3,6,5,"left","Left",1067.68,32,29,6,30,27,5,1,6,1,0.389090909090909,0.610909090909091
3,37,"learning",1,2,1,"left","Left",814.64,18,14,2,18,15,1,1,2,1,1,0
3,38,"learning",2,4,3,"left","Left",858.69,25,21,4,24,21,3,1,4,1,0,0
3,39,"learning",3,6,5,"left","Right",888.34,32,26,5,30,27,5,0,5,2,0.596707818930041,0.403292181069959
3,40,"learning",1,2,1,"left","Left",837.19,18,16,2,18,15,1,1,2,1,1,0
3,41,"learning",4,7,8,"right","Left",1164.6,34,32,7,33,36,7,0,7,1,1,0
3,42,"learning",4,7,8,"right","Left",610.52,31,34,7,33,36,7,0,7,1,0.596610169491525,0.403389830508475
3,43,"learning",3,5,6,"right","Right",414.63,28,31,6,27,30,5,1,6,2,0,0
3,44,"learning",4,7,8,"right","Left",782.46,32,35,7,33,36,7,0,7,1,0.524416135881104,0.475583864118896
3,45,"learning",1,2,1,"left","Left",906.19,15,18,2,18,15,1,1,2,1,0,0
3,46,"learning",2,3,4,"right","Right",722.84,23,25,4,21,24,3,1,4,2,0,1
3,47,"learning",1,1,2,"right","Left",647.94,17,19,1,15,18,1,0,1,1,1,0
3,48,"learning",4,8,7,"left","Left",1282.38,38,32,8,36,33,7,1,8,1,0.578606158833063,0.421393841166937
3,49,"learning",3,6,5,"left","Right",1038.49,29,27,5,30,27,5,0,5,2,0.389280677009873,0.610719322990127
3,50,"learning",1,2,1,"left","Right",941.16,20,17,1,18,15,1,0,1,2,0,0
3,51,"learning",3,6,5,"left","Left",763.79,32,26,6,30,27,5,1,6,1,1,0
3,52,"learning",3,5,6,"right","Right",1811.78,28,29,6,27,30,5,1,6,2,0.413919413919414,0.586080586080586
3,53,"learning",4,7,8,"right","Left",1064.64,34,37,7,33,36,7,0,7,1,0.494252873563218,0.505747126436782
3,54,"learning",3,6,5,"left","Right",734.28,30,26,5,30,27,5,0,5,2,0.349019607843137,0.650980392156863
3,55,"learning",1,1,2,"right","Left",820.51,12,18,1,15,18,1,0,1,1,0,0
3,56,"learning",4,8,7,"left","Left",1238.5,34,36,8,36,33,7,1,8,1,1,0
3,57,"learning",3,5,6,"right","Right",814.26,28,26,6,27,30,5,1,6,2,0,1
3,58,"learning",2,4,3,"left","Left",508.79,24,22,4,24,21,3,1,4,1,1,0
3,59,"learning",2,4,3,"left","Right",669.1,26,22,3,24,21,3,0,3,2,0,0
3,60,"learning",1,2,1,"left","Right",1556.48,20,16,1,18,15,1,0,1,2,0.326086956521739,0.673913043478261
3,61,"learning",3,5,6,"right","Left",1167.06,24,29,5,27,30,5,0,5,1,0.666666666666667,0.333333333333333
3,62,"learning",4,7,8,"right","Left",660.92,34,35,7,33,36,7,0,7,1,1,0
3,63,"learning",1,2,1,"left","Left",1048.46,17,14,2,18,15,1,1,2,1,0.413793103448276,0.586206896551724
3,64,"learning",2,4,3,"left","Right",1188.94,23,20,3,24,21,3,0,3,2,1,0
3,65,"learning",4,7,8,"right","Left",588.55,30,35,7,33,36,7,0,7,1,1,0
3,66,"learning",1,1,2,"right","Right",747.95,14,17,2,15,18,1,1,2,2,0,1
3,67,"learning",2,4,3,"left","Left",633.52,21,24,4,24,21,3,1,4,1,1,0
3,68,"learning",3,5,6,"right","Right",670.18,24,33,6,27,30,5,1,6,2,0,0
3,69,"learning",3,6,5,"left","Left",723.9,31,29,6,30,27,5,1,6,1,0,0
3,70,"learning",2,3,4,"right","Left",1413.53,18,22,3,21,24,3,0,3,1,0.589442815249267,0.410557184750733
3,71,"learning",3,6,5,"left","Right",621.35,30,26,5,30,27,5,0,5,2,0,0
3,72,"learning",1,2,1,"left","Left",719.19,16,18,2,18,15,1,1,2,1,0,0
3,73,"learning",4,8,7,"left","Right",877.18,36,34,7,36,33,7,0,7,2,0,0
3,74,"learning",4,8,7,"left","Left",605.7,36,32,8,36,33,7,1,8,1,0,0
3,75,"learning",1,1,2,"right","Right",1127.99,16,18,2,15,18,1,1,2,2,0.367295597484277,0.632704402515723
3,76,"learning",4,8,7,"left","Left",696.94,33,36,8,36,33,7,1,8,1,0.8,0.2
3,77,"learning",2,4,3,"left","Right",569.65,22,24,3,24,21,3,0,3,2,0,0
3,78,"learning",1,2,1,"left","Right",446,20,13,1,18,15,1,0,1,2,0,0
3,79,"learning",2,3,4,"right","Left",522.97,22,24,3,21,24,3,0,3,1,0,0
3,80,"learning",3,5,6,"right","Right",565.09,28,30,6,27,30,5,1,6,2,0,0
3,81,"learning",4,8,7,"left","Left",654.65,35,32,8,36,33,7,1,8,1,0,0
3,82,"learning",2,4,3,"left","Right",520.36,26,20,3,24,21,3,0,3,2,0,0
3,83,"learning",1,1,2,"right","Left",601.56,16,18,1,15,18,1,0,1,1,1,0
3,84,"learning",1,2,1,"left","Right",549.16,20,14,1,18,15,1,0,1,2,0,0
3,85,"learning",4,8,7,"left","Left",2055.24,38,35,8,36,33,7,1,8,1,0.777351247600768,0.222648752399232
3,86,"learning",3,5,6,"right","Right",1937.61,28,31,6,27,30,5,1,6,2,0.306425041186161,0.693574958813838
3,87,"learning",1,2,1,"left","Left",1049.45,19,17,2,18,15,1,1,2,1,0,0
3,88,"learning",4,8,7,"left","Left",1711.47,38,31,8,36,33,7,1,8,1,1,0
3,89,"learning",4,7,8,"right","Right",897.39,34,36,8,33,36,7,1,8,2,0,0
3,90,"learning",3,6,5,"left","Left",579.44,32,25,6,30,27,5,1,6,1,0,0
3,91,"learning",3,5,6,"right","Right",638.38,24,30,6,27,30,5,1,6,2,0,0
3,92,"learning",4,7,8,"right","Right",839.11,30,36,8,33,36,7,1,8,2,0,0
3,93,"learning",3,6,5,"left","Left",652.36,30,28,6,30,27,5,1,6,1,0,0
3,94,"learning",1,1,2,"right","Right",1036.47,12,16,2,15,18,1,1,2,2,0,0
3,95,"learning",3,6,5,"left","Left",477.95,29,26,6,30,27,5,1,6,1,0,0
3,96,"learning",2,4,3,"left","Left",957.54,26,19,4,24,21,3,1,4,1,0,0
3,97,"learning",2,3,4,"right","Right",635.66,22,25,4,21,24,3,1,4,2,0,0
3,98,"learning",2,4,3,"left","Left",530.68,26,23,4,24,21,3,1,4,1,1,0
3,99,"learning",4,8,7,"left","Left",652.23,35,33,8,36,33,7,1,8,1,0,0
3,100,"learning",2,3,4,"right","Right",585.83,22,24,4,21,24,3,1,4,2,0,0
3,101,"learning",2,4,3,"left","Left",481.33,25,23,4,24,21,3,1,4,1,0,0
3,102,"learning",2,4,3,"left","Left",552.07,26,20,4,24,21,3,1,4,1,0,0
3,103,"learning",2,4,3,"left","Left",576.77,24,18,4,24,21,3,1,4,1,0,0
3,104,"learning",4,8,7,"left","Left",605.92,37,35,8,36,33,7,1,8,1,1,0
3,105,"learning",3,5,6,"right","Right",340.55,26,29,6,27,30,5,1,6,2,0,0
3,106,"learning",2,4,3,"left","Right",576.6,24,20,3,24,21,3,0,3,2,0,0
3,107,"learning",1,1,2,"right","Right",942.9,16,19,2,15,18,1,1,2,2,0,0
3,108,"learning",4,7,8,"right","Right",828.27,30,34,8,33,36,7,1,8,2,0,0
3,109,"learning",4,8,7,"left","Right",719.91,36,30,7,36,33,7,0,7,2,1,0
3,110,"learning",4,7,8,"right","Right",811.61,35,37,8,33,36,7,1,8,2,0,0
3,111,"learning",2,3,4,"right","Right",1040.38,25,23,4,21,24,3,1,4,2,0,0
3,112,"learning",3,6,5,"left","Left",689.96,27,30,6,30,27,5,1,6,1,1,0
3,113,"learning",1,2,1,"left","Left",1126.24,17,15,2,18,15,1,1,2,1,0,0
3,114,"learning",2,3,4,"right","Right",780.7,18,23,4,21,24,3,1,4,2,0,0
3,115,"learning",3,5,6,"right","Right",1718.38,31,29,6,27,30,5,1,6,2,0.587219343696028,0.412780656303972
3,116,"learning",3,6,5,"left","Right",739.07,31,27,5,30,27,5,0,5,2,0,0
3,117,"learning",3,6,5,"left","Left",549.23,28,30,6,30,27,5,1,6,1,1,0
3,118,"learning",1,2,1,"left","Left",1624.21,19,15,2,18,15,1,1,2,1,1,0
3,119,"learning",3,5,6,"right","Left",874.22,28,30,5,27,30,5,0,5,1,0,0
3,120,"learning",4,8,7,"left","Left",2255.28,37,33,8,36,33,7,1,8,1,1,0
3,121,"transfer",100,6,5,"left","Left",952.5,NA,NA,6,30,27,5,1,6,1,0,0
3,122,"transfer",100,5,8,"right","Right",2787.78,NA,NA,8,27,36,7,1,8,2,0,0
3,123,"transfer",100,7,3,"left","Left",1556.33,NA,NA,7,33,21,6,1,7,1,0.508771929824561,0.491228070175439
3,124,"transfer",100,4,1,"left","Left",1853.28,NA,NA,4,24,15,3,1,4,1,0,1
3,125,"transfer",100,6,7,"right","Left",2105.79,NA,NA,6,30,33,6,0,6,1,1,0
3,126,"transfer",100,5,7,"right","Right",1187.59,NA,NA,7,27,33,6,1,7,2,0,0
3,127,"transfer",100,8,7,"left","Left",3289.53,NA,NA,8,36,33,7,1,8,1,0.386627906976744,0.613372093023256
3,128,"transfer",100,1,4,"right","Right",797.98,NA,NA,4,15,24,3,1,4,2,0,0
3,129,"transfer",100,2,7,"right","Left",939.21,NA,NA,2,18,33,6,0,2,1,0,0
3,130,"transfer",100,3,1,"left","Left",3421.78,NA,NA,3,21,15,2,1,3,1,0.594594594594595,0.405405405405405
3,131,"transfer",100,4,3,"left","Left",942.82,NA,NA,4,24,21,3,1,4,1,0,0
3,132,"transfer",100,6,2,"left","Left",2363.75,NA,NA,6,30,18,5,1,6,1,1,0
3,133,"transfer",100,6,7,"right","Left",2304.89,NA,NA,6,30,33,6,0,6,1,0,0
3,134,"transfer",100,7,6,"left","Right",1713.99,NA,NA,6,33,30,6,0,6,2,1,0
3,135,"transfer",100,5,3,"left","Right",1015.74,NA,NA,3,27,21,4,0,3,2,0,0
3,136,"transfer",100,1,7,"right","Right",2392.11,NA,NA,7,15,33,6,1,7,2,0.496598639455782,0.503401360544218
3,137,"transfer",100,4,8,"right","Left",774.38,NA,NA,4,24,36,7,0,4,1,0,0
3,138,"transfer",100,2,8,"right","Left",1161.22,NA,NA,2,18,36,7,0,2,1,0,0
3,139,"transfer",100,6,3,"left","Left",1172.76,NA,NA,6,30,21,5,1,6,1,0,0
3,140,"transfer",100,3,4,"right","Right",640.44,NA,NA,4,21,24,3,1,4,2,0,0
3,141,"transfer",100,8,1,"left","Left",575.94,NA,NA,8,36,15,7,1,8,1,0,0
3,142,"transfer",100,5,2,"left","Right",652.04,NA,NA,2,27,18,4,0,2,2,0,0
3,143,"transfer",100,3,7,"right","Right",1528.55,NA,NA,7,21,33,6,1,7,2,1,0
3,144,"transfer",100,8,3,"left","Left",2619.85,NA,NA,8,36,21,7,1,8,1,0.757679180887372,0.242320819112628
3,145,"transfer",100,3,8,"right","Right",3140.47,NA,NA,8,21,36,7,1,8,2,0.260422615648201,0.739577384351799
3,146,"transfer",100,3,1,"left","Left",712,NA,NA,3,21,15,2,1,3,1,0,0
3,147,"transfer",100,4,6,"right","Left",1242.28,NA,NA,4,24,30,5,0,4,1,0,0
3,148,"transfer",100,7,1,"left","Left",626.36,NA,NA,7,33,15,6,1,7,1,0,0
3,149,"transfer",100,5,8,"right","Right",796.6,NA,NA,8,27,36,7,1,8,2,0,0
3,150,"transfer",100,3,5,"right","Left",1533.89,NA,NA,3,21,27,4,0,3,1,0.619354838709677,0.380645161290323
3,151,"transfer",100,1,5,"right","Left",1441.92,NA,NA,1,15,27,4,0,1,1,0.724284199363733,0.275715800636267
3,152,"transfer",100,5,4,"left","Right",2318.76,NA,NA,4,27,24,4,0,4,2,0.595317725752508,0.404682274247492
3,153,"transfer",100,2,5,"right","Left",811.49,NA,NA,2,18,27,4,0,2,1,0,0
3,154,"transfer",100,6,1,"left","Left",728.79,NA,NA,6,30,15,5,1,6,1,1,0
3,155,"transfer",100,6,3,"left","Left",566.18,NA,NA,6,30,21,5,1,6,1,0,0
3,156,"transfer",100,4,7,"right","Left",3408.99,NA,NA,4,24,33,6,0,4,1,0.896774193548387,0.103225806451613
3,157,"transfer",100,2,4,"right","Right",556.24,NA,NA,4,18,24,3,1,4,2,0,0
3,158,"transfer",100,3,4,"right","Right",952.56,NA,NA,4,21,24,3,1,4,2,0,0
3,159,"transfer",100,4,5,"right","Left",490.51,NA,NA,4,24,27,4,0,4,1,1,0
3,160,"transfer",100,5,6,"right","Right",1105.39,NA,NA,6,27,30,5,1,6,2,0,0
3,161,"transfer",100,7,5,"left","Left",1113.69,NA,NA,7,33,27,6,1,7,1,0,0
3,162,"transfer",100,8,6,"left","Left",859.37,NA,NA,8,36,30,7,1,8,1,0,0
3,163,"transfer",100,8,5,"left","Left",1033.29,NA,NA,8,36,27,7,1,8,1,0,0
3,164,"transfer",100,2,3,"right","Left",671.58,NA,NA,2,18,21,2,0,2,1,0,0
3,165,"transfer",100,1,8,"right","Right",1577.53,NA,NA,8,15,36,7,1,8,2,0,0
3,166,"transfer",100,7,5,"left","Right",1950.27,NA,NA,5,33,27,6,0,5,2,0.439963336388634,0.560036663611366
3,167,"transfer",100,4,7,"right","Left",562.2,NA,NA,4,24,33,6,0,4,1,0,0
3,168,"transfer",100,6,1,"left","Left",583.9,NA,NA,6,30,15,5,1,6,1,0,0
3,169,"transfer",100,7,1,"left","Left",617.67,NA,NA,7,33,15,6,1,7,1,0,0
3,170,"transfer",100,5,3,"left","Right",734.97,NA,NA,3,27,21,4,0,3,2,0,0
3,171,"transfer",100,7,8,"right","Right",622.34,NA,NA,8,33,36,7,1,8,2,0,0
3,172,"transfer",100,8,1,"left","Left",1138.97,NA,NA,8,36,15,7,1,8,1,0.504854368932039,0.495145631067961
3,173,"transfer",100,7,2,"left","Right",601.55,NA,NA,2,33,18,6,0,2,2,0,0
3,174,"transfer",100,7,6,"left","Right",396.84,NA,NA,6,33,30,6,0,6,2,0,0
3,175,"transfer",100,7,3,"left","Left",2188.14,NA,NA,7,33,21,6,1,7,1,0.702857142857143,0.297142857142857
3,176,"transfer",100,7,8,"right","Right",584.64,NA,NA,8,33,36,7,1,8,2,0,0
3,177,"transfer",100,7,4,"left","Right",659.9,NA,NA,4,33,24,6,0,4,2,0,0
3,178,"transfer",100,6,5,"left","Left",514.31,NA,NA,6,30,27,5,1,6,1,0,0
3,179,"transfer",100,6,4,"left","Left",1105.89,NA,NA,6,30,24,5,1,6,1,1,0
3,180,"transfer",100,4,5,"right","Left",1809.12,NA,NA,4,24,27,4,0,4,1,0.460076045627376,0.539923954372624
3,181,"transfer",100,6,4,"left","Right",969.12,NA,NA,4,30,24,5,0,4,2,0,0
3,182,"transfer",100,4,2,"left","Right",553.85,NA,NA,2,24,18,3,0,2,2,0,0
3,183,"transfer",100,1,2,"right","Right",626.09,NA,NA,2,15,18,1,1,2,2,0,0
3,184,"transfer",100,2,5,"right","Left",653.06,NA,NA,2,18,27,4,0,2,1,0,0
3,185,"transfer",100,8,7,"left","Left",736.05,NA,NA,8,36,33,7,1,8,1,0,0
3,186,"transfer",100,8,4,"left","Right",1504.72,NA,NA,4,36,24,7,0,4,2,0.607003891050584,0.392996108949416
3,187,"transfer",100,5,2,"left","Right",585,NA,NA,2,27,18,4,0,2,2,0,0
3,188,"transfer",100,3,6,"right","Right",518.97,NA,NA,6,21,30,5,1,6,2,0,0
3,189,"transfer",100,4,3,"left","Left",682.41,NA,NA,4,24,21,3,1,4,1,0,0
3,190,"transfer",100,5,6,"right","Right",776.98,NA,NA,6,27,30,5,1,6,2,0,0
3,191,"transfer",100,2,7,"right","Right",1145.08,NA,NA,7,18,33,6,1,7,2,0,0
3,192,"transfer",100,5,4,"left","Right",978.3,NA,NA,4,27,24,4,0,4,2,0,0
3,193,"transfer",100,3,7,"right","Left",3172.62,NA,NA,3,21,33,6,0,3,1,0.491620111731844,0.508379888268156
3,194,"transfer",100,8,5,"left","Left",632.14,NA,NA,8,36,27,7,1,8,1,0,0
3,195,"transfer",100,2,6,"right","Right",488.11,NA,NA,6,18,30,5,1,6,2,0,0
3,196,"transfer",100,2,6,"right","Left",405.06,NA,NA,2,18,30,5,0,2,1,0,0
3,197,"transfer",100,8,4,"left","Left",1520.66,NA,NA,8,36,24,7,1,8,1,0.845401174168297,0.154598825831703
3,198,"transfer",100,8,2,"left","Left",859.45,NA,NA,8,36,18,7,1,8,1,0,0
3,199,"transfer",100,5,1,"left","Left",1312.39,NA,NA,5,27,15,4,1,5,1,0.616692426584235,0.383307573415765
3,200,"transfer",100,3,5,"right","Right",780.34,NA,NA,5,21,27,4,1,5,2,0,0
3,201,"transfer",100,4,8,"right","Left",510.03,NA,NA,4,24,36,7,0,4,1,0,0
3,202,"transfer",100,2,3,"right","Left",567.53,NA,NA,2,18,21,2,0,2,1,0,0
3,203,"transfer",100,7,4,"left","Right",1127.81,NA,NA,4,33,24,6,0,4,2,1,0
3,204,"transfer",100,4,6,"right","Right",516.84,NA,NA,6,24,30,5,1,6,2,0,0
3,205,"transfer",100,3,2,"left","Right",3018.68,NA,NA,2,21,18,2,0,2,2,0.684100418410042,0.315899581589958
3,206,"transfer",100,6,8,"right","Left",963.47,NA,NA,6,30,36,7,0,6,1,1,0
3,207,"transfer",100,8,6,"left","Right",778.61,NA,NA,6,36,30,7,0,6,2,0,0
3,208,"transfer",100,8,2,"left","Left",448.91,NA,NA,8,36,18,7,1,8,1,0,0
3,209,"transfer",100,8,3,"left","Left",655.87,NA,NA,8,36,21,7,1,8,1,0,0
3,210,"transfer",100,6,2,"left","Left",857.01,NA,NA,6,30,18,5,1,6,1,0,0
3,211,"transfer",100,3,6,"right","Right",1328.26,NA,NA,6,21,30,5,1,6,2,0.39453717754173,0.60546282245827
3,212,"transfer",100,2,8,"right","Left",2902.64,NA,NA,2,18,36,7,0,2,1,0.474878444084279,0.525121555915721
3,213,"transfer",100,1,4,"right","Right",1473.63,NA,NA,4,15,24,3,1,4,2,0.56872037914692,0.431279620853081
3,214,"transfer",100,1,3,"right","Left",1636,NA,NA,1,15,21,2,0,1,1,0.584937238493724,0.415062761506276
3,215,"transfer",100,2,1,"left","Left",582.58,NA,NA,2,18,15,1,1,2,1,0,0
3,216,"transfer",100,2,4,"right","Left",1156.01,NA,NA,2,18,24,3,0,2,1,0.559577677224736,0.440422322775264
3,217,"transfer",100,3,2,"left","Right",667.36,NA,NA,2,21,18,2,0,2,2,0,1
3,218,"transfer",100,5,1,"left","Left",649.71,NA,NA,5,27,15,4,1,5,1,1,0
3,219,"transfer",100,4,2,"left","Right",1856.39,NA,NA,2,24,18,3,0,2,2,0,0
3,220,"transfer",100,1,6,"right","Right",606.87,NA,NA,6,15,30,5,1,6,2,0,1
3,221,"transfer",100,2,1,"left","Left",647.54,NA,NA,2,18,15,1,1,2,1,1,0
3,222,"transfer",100,3,8,"right","Right",526.4,NA,NA,8,21,36,7,1,8,2,0,0
3,223,"transfer",100,1,8,"right","Right",1090.55,NA,NA,8,15,36,7,1,8,2,0,1
3,224,"transfer",100,5,7,"right","Right",1556.65,NA,NA,7,27,33,6,1,7,2,1,0
3,225,"transfer",100,4,1,"left","Left",765.03,NA,NA,4,24,15,3,1,4,1,1,0
3,226,"transfer",100,1,5,"right","Right",621.26,NA,NA,5,15,27,4,1,5,2,0,0
3,227,"transfer",100,1,7,"right","Left",740.28,NA,NA,1,15,33,6,0,1,1,1,0
3,228,"transfer",100,6,8,"right","Left",641.25,NA,NA,6,30,36,7,0,6,1,1,0
3,229,"transfer",100,1,2,"right","Right",4596.9,NA,NA,2,15,18,1,1,2,2,0.69672131147541,0.30327868852459
3,230,"transfer",100,1,6,"right","Right",942.73,NA,NA,6,15,30,5,1,6,2,0,0
3,231,"transfer",100,7,2,"left","Right",1357.26,NA,NA,2,33,18,6,0,2,2,0.294117647058824,0.705882352941177
3,232,"transfer",100,1,3,"right","Right",1868.52,NA,NA,3,15,21,2,1,3,2,0.47233691164327,0.52766308835673
4,1,"learning",3,6,5,"left","Right",4241.33,32,25,5,30,27,5,0,5,2,0.382728164867517,0.617271835132483
4,2,"learning",3,6,5,"left","Left",1252.09,32,26,6,30,27,5,1,6,1,1,0
4,3,"learning",4,8,7,"left","Right",1923.86,36,30,7,36,33,7,0,7,2,0.476067270375162,0.523932729624838
4,4,"learning",2,4,3,"left","Left",2175.93,22,24,4,24,21,3,1,4,1,0.516728624535316,0.483271375464684
4,5,"learning",3,6,5,"left","Left",984.86,30,24,6,30,27,5,1,6,1,1,0
4,6,"learning",2,3,4,"right","Left",1435.76,18,27,3,21,24,3,0,3,1,0.679144385026738,0.320855614973262
4,7,"learning",3,6,5,"left","Left",879.3,32,29,6,30,27,5,1,6,1,0.622047244094488,0.377952755905512
4,8,"learning",4,7,8,"right","Right",1779.35,34,37,8,33,36,7,1,8,2,0.509090909090909,0.490909090909091
4,9,"learning",4,7,8,"right","Right",1017.92,35,37,8,33,36,7,1,8,2,1,0
4,10,"learning",3,5,6,"right","Right",1374.31,28,30,6,27,30,5,1,6,2,0.19672131147541,0.80327868852459
4,11,"learning",2,4,3,"left","Left",1115.02,24,20,4,24,21,3,1,4,1,0.473429951690821,0.526570048309179
4,12,"learning",3,5,6,"right","Right",1133.81,25,28,6,27,30,5,1,6,2,0.445161290322581,0.554838709677419
4,13,"learning",4,8,7,"left","Right",1228.04,36,32,7,36,33,7,0,7,2,0.422413793103448,0.577586206896552
4,14,"learning",4,7,8,"right","Right",611.52,34,32,8,33,36,7,1,8,2,0,1
4,15,"learning",3,6,5,"left","Left",781.72,27,30,6,30,27,5,1,6,1,1,0
4,16,"learning",4,7,8,"right","Right",1173.79,30,36,8,33,36,7,1,8,2,0.286995515695067,0.713004484304933
4,17,"learning",4,7,8,"right","Right",1163.64,34,36,8,33,36,7,1,8,2,0.508833922261484,0.491166077738516
4,18,"learning",1,2,1,"left","Left",2025.83,20,13,2,18,15,1,1,2,1,0.681514476614699,0.318485523385301
4,19,"learning",2,3,4,"right","Left",2643.16,22,24,3,21,24,3,0,3,1,0.568329718004338,0.431670281995662
4,20,"learning",3,5,6,"right","Left",1459.36,24,29,5,27,30,5,0,5,1,0.396325459317585,0.603674540682415
4,21,"learning",1,2,1,"left","Left",2500.6,19,17,2,18,15,1,1,2,1,0.432520325203252,0.567479674796748
4,22,"learning",2,3,4,"right","Right",1718,18,24,4,21,24,3,1,4,2,0.639423076923077,0.360576923076923
4,23,"learning",2,4,3,"left","Left",1060.39,25,21,4,24,21,3,1,4,1,1,0
4,24,"learning",1,2,1,"left","Left",731.93,19,15,2,18,15,1,1,2,1,1,0
4,25,"learning",4,8,7,"left","Right",1889.07,38,32,7,36,33,7,0,7,2,0.668181818181818,0.331818181818182
4,26,"learning",4,8,7,"left","Right",3308.19,36,32,7,36,33,7,0,7,2,0.532967032967033,0.467032967032967
4,27,"learning",4,8,7,"left","Left",489.67,35,33,8,36,33,7,1,8,1,1,0
4,28,"learning",3,6,5,"left","Left",1242.3,30,26,6,30,27,5,1,6,1,0.70625,0.29375
4,29,"learning",4,8,7,"left","Left",615.96,38,35,8,36,33,7,1,8,1,1,0
4,30,"learning",4,8,7,"left","Left",595.35,38,34,8,36,33,7,1,8,1,1,0
4,31,"learning",4,7,8,"right","Right",1075.03,31,34,8,33,36,7,1,8,2,0.273504273504274,0.726495726495726
4,32,"learning",4,8,7,"left","Left",641.15,35,32,8,36,33,7,1,8,1,1,0
4,33,"learning",2,3,4,"right","Right",1363.33,22,24,4,21,24,3,1,4,2,0.463556851311953,0.536443148688047
4,34,"learning",1,1,2,"right","Left",990.26,12,21,1,15,18,1,0,1,1,0.427672955974843,0.572327044025157
4,35,"learning",3,5,6,"right","Right",1415.25,28,26,6,27,30,5,1,6,2,0.627450980392157,0.372549019607843
4,36,"learning",1,1,2,"right","Left",2274.85,12,16,1,15,18,1,0,1,1,1,0
4,37,"learning",2,4,3,"left","Left",799.01,21,24,4,24,21,3,1,4,1,1,0
4,38,"learning",1,2,1,"left","Left",1733.65,18,14,2,18,15,1,1,2,1,0.63921568627451,0.36078431372549
4,39,"learning",1,1,2,"right","Right",1109.63,17,19,2,15,18,1,1,2,2,0.229508196721311,0.770491803278688
4,40,"learning",2,4,3,"left","Right",1149.64,26,20,3,24,21,3,0,3,2,0.341573033707865,0.658426966292135
4,41,"learning",3,5,6,"right","Left",1372.63,28,29,5,27,30,5,0,5,1,0.517857142857143,0.482142857142857
4,42,"learning",2,3,4,"right","Left",1446.31,22,23,3,21,24,3,0,3,1,1,0
4,43,"learning",1,2,1,"left","Left",897.81,18,12,2,18,15,1,1,2,1,1,0
4,44,"learning",4,7,8,"right","Left",2582.91,34,36,7,33,36,7,0,7,1,0.816118047673099,0.183881952326901
4,45,"learning",3,6,5,"left","Left",3092.73,31,29,6,30,27,5,1,6,1,0.512254901960784,0.487745098039216
4,46,"learning",3,5,6,"right","Right",929.52,26,29,6,27,30,5,1,6,2,0,0
4,47,"learning",4,7,8,"right","Right",2592.9,32,35,8,33,36,7,1,8,2,0.396753832281335,0.603246167718665
4,48,"learning",2,3,4,"right","Right",972.7,22,25,4,21,24,3,1,4,2,0.525974025974026,0.474025974025974
4,49,"learning",2,4,3,"left","Left",808.05,24,20,4,24,21,3,1,4,1,0.762295081967213,0.237704918032787
4,50,"learning",4,8,7,"left","Left",1248.42,36,34,8,36,33,7,1,8,1,1,0
4,51,"learning",4,7,8,"right","Right",849.12,34,37,8,33,36,7,1,8,2,0.621621621621622,0.378378378378378
4,52,"learning",2,3,4,"right","Right",601.69,19,22,4,21,24,3,1,4,2,0,0
4,53,"learning",3,6,5,"left","Left",1170.46,29,27,6,30,27,5,1,6,1,0.670212765957447,0.329787234042553
4,54,"learning",1,2,1,"left","Left",834.92,16,18,2,18,15,1,1,2,1,1,0
4,55,"learning",1,1,2,"right","Left",575.47,16,18,1,15,18,1,0,1,1,1,0
4,56,"learning",1,1,2,"right","Left",1498.63,16,19,1,15,18,1,0,1,1,0.857670979667283,0.142329020332717
4,57,"learning",1,1,2,"right","Right",340.41,16,19,2,15,18,1,1,2,2,0,0
4,58,"learning",3,6,5,"left","Left",828.83,30,28,6,30,27,5,1,6,1,1,0
4,59,"learning",2,3,4,"right","Right",1414.4,22,20,4,21,24,3,1,4,2,0.55877034358047,0.44122965641953
4,60,"learning",4,7,8,"right","Right",2657.69,30,34,8,33,36,7,1,8,2,0.707938820101966,0.292061179898033
4,61,"learning",3,5,6,"right","Left",1148.54,24,30,5,27,30,5,0,5,1,1,0
4,62,"learning",2,4,3,"left","Right",2259.36,26,22,3,24,21,3,0,3,2,0.371625863151287,0.628374136848713
4,63,"learning",2,3,4,"right","Right",609.78,23,25,4,21,24,3,1,4,2,0,1
4,64,"learning",2,3,4,"right","Right",1500.75,25,23,4,21,24,3,1,4,2,0.775757575757576,0.224242424242424
4,65,"learning",2,4,3,"left","Left",554.11,24,22,4,24,21,3,1,4,1,1,0
4,66,"learning",2,4,3,"left","Left",1490.61,23,20,4,24,21,3,1,4,1,1,0
4,67,"learning",4,7,8,"right","Right",1045.44,30,35,8,33,36,7,1,8,2,0.324786324786325,0.675213675213675
4,68,"learning",1,1,2,"right","Right",1551.41,16,19,2,15,18,1,1,2,2,0.597547380156076,0.402452619843924
4,69,"learning",4,7,8,"right","Right",547.39,37,35,8,33,36,7,1,8,2,0,1
4,70,"learning",1,2,1,"left","Left",1036.62,15,18,2,18,15,1,1,2,1,1,0
4,71,"learning",1,2,1,"left","Right",2213.89,20,16,1,18,15,1,0,1,2,0.443991853360489,0.556008146639511
4,72,"learning",1,1,2,"right","Left",2515.63,16,18,1,15,18,1,0,1,1,0.501597444089457,0.498402555910543
4,73,"learning",4,7,8,"right","Right",2219.31,34,35,8,33,36,7,1,8,2,0.637894736842105,0.362105263157895
4,74,"learning",4,8,7,"left","Left",686.23,37,35,8,36,33,7,1,8,1,1,0
4,75,"learning",1,1,2,"right","Right",532.57,16,14,2,15,18,1,1,2,2,0,1
4,76,"learning",4,8,7,"left","Left",1438.24,37,33,8,36,33,7,1,8,1,1,0
4,77,"learning",2,3,4,"right","Left",2247.84,18,23,3,21,24,3,0,3,1,0.332443257676903,0.667556742323097
4,78,"learning",1,1,2,"right","Right",999.93,12,17,2,15,18,1,1,2,2,0.405286343612335,0.594713656387665
4,79,"learning",4,7,8,"right","Right",2414.73,34,37,8,33,36,7,1,8,2,0.723684210526316,0.276315789473684
4,80,"learning",2,4,3,"left","Left",1473.26,26,23,4,24,21,3,1,4,1,0.632802937576499,0.367197062423501
4,81,"learning",1,2,1,"left","Left",1039.57,17,15,2,18,15,1,1,2,1,1,0
4,82,"learning",3,6,5,"left","Left",2246.87,31,27,6,30,27,5,1,6,1,0.341818181818182,0.658181818181818
4,83,"learning",3,5,6,"right","Right",1461.81,28,30,6,27,30,5,1,6,2,0.297101449275362,0.702898550724638
4,84,"learning",3,5,6,"right","Right",723.44,29,31,6,27,30,5,1,6,2,0,0
4,85,"learning",2,4,3,"left","Left",2545.52,23,21,4,24,21,3,1,4,1,0.698275862068966,0.301724137931034
4,86,"learning",2,4,3,"left","Left",1781.82,24,18,4,24,21,3,1,4,1,1,0
4,87,"learning",1,2,1,"left","Left",1537.7,20,14,2,18,15,1,1,2,1,1,0
4,88,"learning",2,3,4,"right","Right",762.88,22,25,4,21,24,3,1,4,2,0,1
4,89,"learning",1,1,2,"right","Right",1528.27,12,18,2,15,18,1,1,2,2,0.569230769230769,0.430769230769231
4,90,"learning",4,8,7,"left","Left",1003.34,33,36,8,36,33,7,1,8,1,0.962800875273523,0.037199124726477
4,91,"learning",2,3,4,"right","Right",1579.82,20,23,4,21,24,3,1,4,2,0.415410385259631,0.584589614740369
4,92,"learning",2,4,3,"left","Left",1428.18,25,23,4,24,21,3,1,4,1,1,0
4,93,"learning",3,6,5,"left","Left",1356.3,32,28,6,30,27,5,1,6,1,0.911651728553137,0.088348271446863
4,94,"learning",4,8,7,"left","Right",1122.35,34,36,7,36,33,7,0,7,2,0.111111111111111,0.888888888888889
4,95,"learning",1,2,1,"left","Left",796.91,20,14,2,18,15,1,1,2,1,1,0
4,96,"learning",3,5,6,"right","Right",1326.06,28,31,6,27,30,5,1,6,2,0.483606557377049,0.516393442622951
4,97,"learning",1,1,2,"right","Right",973.52,14,17,2,15,18,1,1,2,2,0.521072796934866,0.478927203065134
4,98,"learning",1,1,2,"right","Right",983.09,19,17,2,15,18,1,1,2,2,0,1
4,99,"learning",1,2,1,"left","Right",1341.94,17,14,1,18,15,1,0,1,2,0.197247706422018,0.802752293577982
4,100,"learning",2,4,3,"left","Left",694.28,26,19,4,24,21,3,1,4,1,1,0
4,101,"learning",4,7,8,"right","Left",2003.92,30,39,7,33,36,7,0,7,1,0.517453798767967,0.482546201232033
4,102,"learning",2,3,4,"right","Left",1447.75,18,22,3,21,24,3,0,3,1,1,0
4,103,"learning",1,1,2,"right","Left",1712.71,13,16,1,15,18,1,0,1,1,0.671120246659815,0.328879753340185
4,104,"learning",3,6,5,"left","Right",2760.89,30,26,5,30,27,5,0,5,2,0.496732026143791,0.503267973856209
4,105,"learning",3,6,5,"left","Left",645.04,28,30,6,30,27,5,1,6,1,1,0
4,106,"learning",3,5,6,"right","Right",1528.41,28,31,6,27,30,5,1,6,2,0.920828258221681,0.0791717417783191
4,107,"learning",1,2,1,"left","Right",2005.65,20,17,1,18,15,1,0,1,2,0.682080924855491,0.317919075144509
4,108,"learning",4,8,7,"left","Right",809.51,38,31,7,36,33,7,0,7,2,1,0
4,109,"learning",1,2,1,"left","Right",874.41,18,14,1,18,15,1,0,1,2,0,1
4,110,"learning",2,4,3,"left","Right",2256.81,26,20,3,24,21,3,0,3,2,0.510879848628193,0.489120151371807
4,111,"learning",4,8,7,"left","Left",1216.31,38,32,8,36,33,7,1,8,1,0.425774877650897,0.574225122349103
4,112,"learning",1,2,1,"left","Left",533.32,18,16,2,18,15,1,1,2,1,1,0
4,113,"learning",3,5,6,"right","Left",2593.66,28,31,5,27,30,5,0,5,1,0.857142857142857,0.142857142857143
4,114,"learning",3,5,6,"right","Right",1065.09,24,33,6,27,30,5,1,6,2,0.25974025974026,0.74025974025974
4,115,"learning",3,6,5,"left","Left",743.76,32,26,6,30,27,5,1,6,1,1,0
4,116,"learning",3,6,5,"left","Left",634.23,29,26,6,30,27,5,1,6,1,1,0
4,117,"learning",3,5,6,"right","Right",1083.92,24,28,6,27,30,5,1,6,2,0,1
4,118,"learning",3,5,6,"right","Right",1412.48,31,29,6,27,30,5,1,6,2,0,0
4,119,"learning",2,3,4,"right","Right",1126.09,22,25,4,21,24,3,1,4,2,0.474393530997305,0.525606469002695
4,120,"learning",1,1,2,"right","Right",1388.31,16,17,2,15,18,1,1,2,2,0.532959326788219,0.467040673211781
4,121,"transfer",100,5,8,"right","Left",896.45,NA,NA,5,27,36,7,0,5,1,1,0
4,122,"transfer",100,6,8,"right","Left",2451.9,NA,NA,6,30,36,7,0,6,1,0.467196819085487,0.532803180914513
4,123,"transfer",100,5,1,"left","Right",2198.03,NA,NA,1,27,15,4,0,1,2,0.426160337552743,0.573839662447257
4,124,"transfer",100,3,5,"right","Left",2966.94,NA,NA,3,21,27,4,0,3,1,0.315656565656566,0.684343434343434
4,125,"transfer",100,2,8,"right","Right",3698.57,NA,NA,8,18,36,7,1,8,2,0.452129902994517,0.547870097005483
4,126,"transfer",100,4,6,"right","Left",709,NA,NA,4,24,30,5,0,4,1,0.729113924050633,0.270886075949367
4,127,"transfer",100,7,8,"right","Right",2071.49,NA,NA,8,33,36,7,1,8,2,0.187633262260128,0.812366737739872
4,128,"transfer",100,3,1,"left","Right",1152.44,NA,NA,1,21,15,2,0,1,2,0.428134556574924,0.571865443425077
4,129,"transfer",100,4,2,"left","Right",2489,NA,NA,2,24,18,3,0,2,2,0.916083916083916,0.0839160839160839
4,130,"transfer",100,4,6,"right","Left",2766.83,NA,NA,4,24,30,5,0,4,1,0.290622098421541,0.709377901578459
4,131,"transfer",100,4,3,"left","Left",2316.28,NA,NA,4,24,21,3,1,4,1,0.196239717978848,0.803760282021152
4,132,"transfer",100,7,6,"left","Right",1467.55,NA,NA,6,33,30,6,0,6,2,0.196571428571429,0.803428571428571
4,133,"transfer",100,6,5,"left","Left",1974.84,NA,NA,6,30,27,5,1,6,1,0.530278232405892,0.469721767594108
4,134,"transfer",100,2,3,"right","Left",3032.37,NA,NA,2,18,21,2,0,2,1,0.285312060065697,0.714687939934303
4,135,"transfer",100,7,6,"left","Right",3654.81,NA,NA,6,33,30,6,0,6,2,0.70724939299341,0.29275060700659
4,136,"transfer",100,8,4,"left","Left",2755.14,NA,NA,8,36,24,7,1,8,1,0.463157894736842,0.536842105263158
4,137,"transfer",100,8,1,"left","Right",3058.92,NA,NA,1,36,15,7,0,1,2,0.561963190184049,0.438036809815951
4,138,"transfer",100,2,4,"right","Right",1053.68,NA,NA,4,18,24,3,1,4,2,0.215767634854772,0.784232365145228
4,139,"transfer",100,6,2,"left","Right",923.61,NA,NA,2,30,18,5,0,2,2,0.382608695652174,0.617391304347826
4,140,"transfer",100,8,1,"left","Left",1035.03,NA,NA,8,36,15,7,1,8,1,1,0
4,141,"transfer",100,3,8,"right","Left",791,NA,NA,3,21,36,7,0,3,1,1,0
4,142,"transfer",100,7,5,"left","Right",1860.81,NA,NA,5,33,27,6,0,5,2,0.125890736342043,0.874109263657957
4,143,"transfer",100,6,8,"right","Left",1298.76,NA,NA,6,30,36,7,0,6,1,0.374712643678161,0.625287356321839
4,144,"transfer",100,2,4,"right","Left",1105.05,NA,NA,2,18,24,3,0,2,1,0.508333333333333,0.491666666666667
4,145,"transfer",100,8,6,"left","Left",1643.63,NA,NA,8,36,30,7,1,8,1,0.224489795918367,0.775510204081633
4,146,"transfer",100,1,8,"right","Left",2495.26,NA,NA,1,15,36,7,0,1,1,0.417803768680962,0.582196231319038
4,147,"transfer",100,5,6,"right","Right",1142.24,NA,NA,6,27,30,5,1,6,2,0.352459016393443,0.647540983606557
4,148,"transfer",100,2,1,"left","Left",3112.22,NA,NA,2,18,15,1,1,2,1,0.628217349857007,0.371782650142993
4,149,"transfer",100,8,5,"left","Right",1161.47,NA,NA,5,36,27,7,0,5,2,0.789968652037618,0.210031347962382
4,150,"transfer",100,7,1,"left","Right",983.25,NA,NA,1,33,15,6,0,1,2,0.56547619047619,0.43452380952381
4,151,"transfer",100,5,3,"left","Left",1906.37,NA,NA,5,27,21,4,1,5,1,0.443812233285917,0.556187766714083
4,152,"transfer",100,3,6,"right","Right",1803.7,NA,NA,6,21,30,5,1,6,2,0.523560209424084,0.476439790575916
4,153,"transfer",100,4,1,"left","Right",854.42,NA,NA,1,24,15,3,0,1,2,0.406976744186047,0.593023255813954
4,154,"transfer",100,5,3,"left","Left",2418.3,NA,NA,5,27,21,4,1,5,1,0.642352941176471,0.357647058823529
4,155,"transfer",100,6,5,"left","Left",1033.12,NA,NA,6,30,27,5,1,6,1,0.444444444444444,0.555555555555556
4,156,"transfer",100,6,1,"left","Right",1111.9,NA,NA,1,30,15,5,0,1,2,0.739130434782609,0.260869565217391
4,157,"transfer",100,1,4,"right","Left",2868.66,NA,NA,1,15,24,3,0,1,1,0.491922876498176,0.508077123501824
4,158,"transfer",100,8,2,"left","Right",595.13,NA,NA,2,36,18,7,0,2,2,1,0
4,159,"transfer",100,1,6,"right","Left",726.2,NA,NA,1,15,30,5,0,1,1,1,0
4,160,"transfer",100,1,5,"right","Right",775.85,NA,NA,5,15,27,4,1,5,2,1,0
4,161,"transfer",100,8,2,"left","Right",782.11,NA,NA,2,36,18,7,0,2,2,1,0
4,162,"transfer",100,6,7,"right","Left",1021.74,NA,NA,6,30,33,6,0,6,1,0.741538461538462,0.258461538461538
4,163,"transfer",100,4,3,"left","Right",2796.58,NA,NA,3,24,21,3,0,3,2,0.759791122715405,0.240208877284595
4,164,"transfer",100,5,2,"left","Right",816.98,NA,NA,2,27,18,4,0,2,2,0,1
4,165,"transfer",100,5,8,"right","Left",3655.33,NA,NA,5,27,36,7,0,5,1,0.650139275766017,0.349860724233983
4,166,"transfer",100,8,3,"left","Left",1663.77,NA,NA,8,36,21,7,1,8,1,0.435149654643131,0.564850345356869
4,167,"transfer",100,2,8,"right","Left",919.62,NA,NA,2,18,36,7,0,2,1,1,0
4,168,"transfer",100,7,8,"right","Right",2072.85,NA,NA,8,33,36,7,1,8,2,0.637292464878672,0.362707535121328
4,169,"transfer",100,8,3,"left","Left",1348.52,NA,NA,8,36,21,7,1,8,1,1,0
4,170,"transfer",100,4,2,"left","Right",10015.93,NA,NA,2,24,18,3,0,2,2,0.436170212765957,0.563829787234043
4,171,"transfer",100,5,6,"right","Right",3415.66,NA,NA,6,27,30,5,1,6,2,0.60197910940077,0.39802089059923
4,172,"transfer",100,3,5,"right","Right",882.46,NA,NA,5,21,27,4,1,5,2,0.381846635367762,0.618153364632238
4,173,"transfer",100,4,5,"right","Right",833.99,NA,NA,5,24,27,4,1,5,2,1,0
4,174,"transfer",100,7,3,"left","Left",1503.63,NA,NA,7,33,21,6,1,7,1,0.370044052863436,0.629955947136564
4,175,"transfer",100,4,8,"right","Left",996.56,NA,NA,4,24,36,7,0,4,1,0.364864864864865,0.635135135135135
4,176,"transfer",100,2,5,"right","Left",623.33,NA,NA,2,18,27,4,0,2,1,1,0
4,177,"transfer",100,2,1,"left","Left",635.58,NA,NA,2,18,15,1,1,2,1,1,0
4,178,"transfer",100,8,4,"left","Left",1552.44,NA,NA,8,36,24,7,1,8,1,0.632768361581921,0.367231638418079
4,179,"transfer",100,6,4,"left","Left",2066.67,NA,NA,6,30,24,5,1,6,1,0.24702380952381,0.75297619047619
4,180,"transfer",100,3,7,"right","Right",2966.21,NA,NA,7,21,33,6,1,7,2,0.594450373532551,0.405549626467449
4,181,"transfer",100,1,7,"right","Left",1179.02,NA,NA,1,15,33,6,0,1,1,1,0
4,182,"transfer",100,1,2,"right","Right",666.79,NA,NA,2,15,18,1,1,2,2,1,0
4,183,"transfer",100,5,7,"right","Left",664.01,NA,NA,5,27,33,6,0,5,1,1,0
4,184,"transfer",100,7,1,"left","Right",1222.1,NA,NA,1,33,15,6,0,1,2,0.192307692307692,0.807692307692308
4,185,"transfer",100,1,5,"right","Left",531.31,NA,NA,1,15,27,4,0,1,1,0.956862745098039,0.0431372549019608
4,186,"transfer",100,3,7,"right","Right",2590.65,NA,NA,7,21,33,6,1,7,2,0.755555555555556,0.244444444444444
4,187,"transfer",100,3,2,"left","Right",745.98,NA,NA,2,21,18,2,0,2,2,0,1
4,188,"transfer",100,3,4,"right","Left",1895.69,NA,NA,3,21,24,3,0,3,1,0.327150084317032,0.672849915682968
4,189,"transfer",100,7,2,"left","Left",1035.46,NA,NA,7,33,18,6,1,7,1,1,0
4,190,"transfer",100,7,4,"left","Left",2684.94,NA,NA,7,33,24,6,1,7,1,0.213465952563122,0.786534047436878
4,191,"transfer",100,1,3,"right","Left",814.5,NA,NA,1,15,21,2,0,1,1,0.961672473867596,0.0383275261324042
4,192,"transfer",100,4,1,"left","Right",727.18,NA,NA,1,24,15,3,0,1,2,0.749419953596288,0.250580046403712
4,193,"transfer",100,5,1,"left","Left",2356.72,NA,NA,5,27,15,4,1,5,1,0.607344632768362,0.392655367231638
4,194,"transfer",100,8,5,"left","Left",1188.26,NA,NA,8,36,27,7,1,8,1,0.883561643835616,0.116438356164384
4,195,"transfer",100,6,1,"left","Left",1339.09,NA,NA,6,30,15,5,1,6,1,0.430939226519337,0.569060773480663
4,196,"transfer",100,2,7,"right","Left",705.78,NA,NA,2,18,33,6,0,2,1,1,0
4,197,"transfer",100,5,7,"right","Left",1117.12,NA,NA,5,27,33,6,0,5,1,1,0
4,198,"transfer",100,1,7,"right","Left",1812.03,NA,NA,1,15,33,6,0,1,1,0.496907216494845,0.503092783505155
4,199,"transfer",100,8,7,"left","Left",1006.67,NA,NA,8,36,33,7,1,8,1,0.198347107438017,0.801652892561983
4,200,"transfer",100,5,4,"left","Left",2555.98,NA,NA,5,27,24,4,1,5,1,0.734513274336283,0.265486725663717
4,201,"transfer",100,7,5,"left","Left",3885.23,NA,NA,7,33,27,6,1,7,1,0.835640138408304,0.164359861591695
4,202,"transfer",100,6,3,"left","Left",834.16,NA,NA,6,30,21,5,1,6,1,0.551724137931034,0.448275862068966
4,203,"transfer",100,1,4,"right","Left",888.56,NA,NA,1,15,24,3,0,1,1,0.381322957198444,0.618677042801556
4,204,"transfer",100,6,4,"left","Left",1071.57,NA,NA,6,30,24,5,1,6,1,0.582814445828144,0.417185554171856
4,205,"transfer",100,1,3,"right","Right",1085.63,NA,NA,3,15,21,2,1,3,2,0.755102040816326,0.244897959183673
4,206,"transfer",100,7,3,"left","Left",1711.82,NA,NA,7,33,21,6,1,7,1,0.366412213740458,0.633587786259542
4,207,"transfer",100,5,4,"left","Left",2715.32,NA,NA,5,27,24,4,1,5,1,0.531991373112868,0.468008626887132
4,208,"transfer",100,4,7,"right","Left",1362.92,NA,NA,4,24,33,6,0,4,1,0.407692307692308,0.592307692307692
4,209,"transfer",100,7,2,"left","Right",694,NA,NA,2,33,18,6,0,2,2,0.338709677419355,0.661290322580645
4,210,"transfer",100,1,2,"right","Right",659.54,NA,NA,2,15,18,1,1,2,2,1,0
4,211,"transfer",100,2,6,"right","Left",862.25,NA,NA,2,18,30,5,0,2,1,0.459770114942529,0.540229885057471
4,212,"transfer",100,5,2,"left","Right",751.91,NA,NA,2,27,18,4,0,2,2,0.789473684210526,0.210526315789474
4,213,"transfer",100,6,7,"right","Left",1765.71,NA,NA,6,30,33,6,0,6,1,0.579766536964981,0.420233463035019
4,214,"transfer",100,2,6,"right","Left",806.92,NA,NA,2,18,30,5,0,2,1,1,0
4,215,"transfer",100,6,2,"left","Right",826.44,NA,NA,2,30,18,5,0,2,2,0.541832669322709,0.458167330677291
4,216,"transfer",100,4,8,"right","Right",2091.41,NA,NA,8,24,36,7,1,8,2,0.518617021276596,0.481382978723404
4,217,"transfer",100,7,4,"left","Right",2861.74,NA,NA,4,33,24,6,0,4,2,0.282624369142033,0.717375630857967
4,218,"transfer",100,4,5,"right","Right",1331.94,NA,NA,5,24,27,4,1,5,2,0.438735177865613,0.561264822134387
4,219,"transfer",100,6,3,"left","Left",767,NA,NA,6,30,21,5,1,6,1,0.324324324324324,0.675675675675676
4,220,"transfer",100,3,8,"right","Right",1178.12,NA,NA,8,21,36,7,1,8,2,0.455445544554455,0.544554455445545
4,221,"transfer",100,3,4,"right","Right",1526.84,NA,NA,4,21,24,3,1,4,2,1,0
4,222,"transfer",100,3,2,"left","Right",625.86,NA,NA,2,21,18,2,0,2,2,0,1
4,223,"transfer",100,4,7,"right","Left",2836.87,NA,NA,4,24,33,6,0,4,1,0.567936327458783,0.432063672541217
4,224,"transfer",100,2,7,"right","Left",667.09,NA,NA,2,18,33,6,0,2,1,1,0
4,225,"transfer",100,3,6,"right","Right",1102.13,NA,NA,6,21,30,5,1,6,2,0,1
4,226,"transfer",100,2,3,"right","Left",701.92,NA,NA,2,18,21,2,0,2,1,1,0
4,227,"transfer",100,3,1,"left","Right",815.57,NA,NA,1,21,15,2,0,1,2,0.281786941580756,0.718213058419244
4,228,"transfer",100,8,6,"left","Right",1055.87,NA,NA,6,36,30,7,0,6,2,1,0
4,229,"transfer",100,2,5,"right","Left",691.98,NA,NA,2,18,27,4,0,2,1,1,0
4,230,"transfer",100,1,8,"right","Right",1065.9,NA,NA,8,15,36,7,1,8,2,0.275862068965517,0.724137931034483
4,231,"transfer",100,1,6,"right","Right",1883.21,NA,NA,6,15,30,5,1,6,2,0.583333333333333,0.416666666666667
4,232,"transfer",100,8,7,"left","Left",1097.62,NA,NA,8,36,33,7,1,8,1,0.323076923076923,0.676923076923077
6,1,"learning",2,4,3,"left","Left",1720.29,25,23,4,24,21,3,1,4,1,0.577264653641208,0.422735346358792
6,2,"learning",3,5,6,"right","Right",1001.59,24,30,6,27,30,5,1,6,2,0.197070572569907,0.802929427430093
6,3,"learning",4,8,7,"left","Left",1778.22,36,30,8,36,33,7,1,8,1,0.707831325301205,0.292168674698795
6,4,"learning",2,4,3,"left","Left",1690.02,25,21,4,24,21,3,1,4,1,0.671618451915559,0.328381548084441
6,5,"learning",4,7,8,"right","Right",1514.21,34,37,8,33,36,7,1,8,2,0.481375358166189,0.518624641833811
6,6,"learning",3,5,6,"right","Left",1984.72,24,29,5,27,30,5,0,5,1,0.698016634676903,0.301983365323097
6,7,"learning",2,3,4,"right","Right",2442.36,22,25,4,21,24,3,1,4,2,0.260089686098655,0.739910313901345
6,8,"learning",4,8,7,"left","Left",1140.53,38,32,8,36,33,7,1,8,1,0.73224043715847,0.26775956284153
6,9,"learning",1,1,2,"right","Left",1920.96,16,14,1,15,18,1,0,1,1,0.598694942903752,0.401305057096248
6,10,"learning",3,6,5,"left","Left",1853.75,32,25,6,30,27,5,1,6,1,0.62797619047619,0.37202380952381
6,11,"learning",4,7,8,"right","Right",1589.46,34,35,8,33,36,7,1,8,2,0.372670807453416,0.627329192546584
6,12,"learning",4,8,7,"left","Left",1413.89,37,35,8,36,33,7,1,8,1,0.643880926130099,0.356119073869901
6,13,"learning",1,2,1,"left","Right",2017.57,17,15,1,18,15,1,0,1,2,0.422326832548756,0.577673167451244
6,14,"learning",4,8,7,"left","Left",3715.05,33,36,8,36,33,7,1,8,1,0.594223318069743,0.405776681930257
6,15,"learning",4,8,7,"left","Right",1579.14,36,34,7,36,33,7,0,7,2,0.32944832944833,0.67055167055167
6,16,"learning",2,3,4,"right","Right",1284.6,22,24,4,21,24,3,1,4,2,0.244444444444444,0.755555555555556
6,17,"learning",2,4,3,"left","Left",1432.2,23,20,4,24,21,3,1,4,1,0.598997493734336,0.401002506265664
6,18,"learning",2,3,4,"right","Right",951.42,18,22,4,21,24,3,1,4,2,0.557168784029038,0.442831215970962
6,19,"learning",2,4,3,"left","Left",894.14,26,20,4,24,21,3,1,4,1,0.712374581939799,0.287625418060201
6,20,"learning",4,8,7,"left","Left",2328.62,38,32,8,36,33,7,1,8,1,0.623376623376623,0.376623376623377
6,21,"learning",2,3,4,"right","Right",1067.43,18,27,4,21,24,3,1,4,2,0.655712050078247,0.344287949921753
6,22,"learning",1,1,2,"right","Left",1444.2,16,18,1,15,18,1,0,1,1,0.593688362919132,0.406311637080868
6,23,"learning",3,5,6,"right","Left",2689.47,24,28,5,27,30,5,0,5,1,0.511515800749866,0.488484199250134
6,24,"learning",2,4,3,"left","Left",848.25,26,19,4,24,21,3,1,4,1,0.496993987975952,0.503006012024048
6,25,"learning",1,2,1,"left","Left",1319.39,18,12,2,18,15,1,1,2,1,0.436363636363636,0.563636363636364
6,26,"learning",2,4,3,"left","Left",782.8,26,23,4,24,21,3,1,4,1,0.56020942408377,0.43979057591623
6,27,"learning",3,6,5,"left","Right",1627.66,32,26,5,30,27,5,0,5,2,0.588486140724947,0.411513859275053
6,28,"learning",3,6,5,"left","Left",1256.43,31,27,6,30,27,5,1,6,1,0.701204819277108,0.298795180722892
6,29,"learning",2,3,4,"right","Right",1085.36,25,23,4,21,24,3,1,4,2,0.471698113207547,0.528301886792453
6,30,"learning",1,1,2,"right","Right",1124.68,13,16,2,15,18,1,1,2,2,0.436950146627566,0.563049853372434
6,31,"learning",4,8,7,"left","Left",2370.82,38,31,8,36,33,7,1,8,1,0.485008818342152,0.514991181657848
6,32,"learning",4,7,8,"right","Right",918.38,34,36,8,33,36,7,1,8,2,0.62063227953411,0.37936772046589
6,33,"learning",1,2,1,"left","Left",1107.91,20,14,2,18,15,1,1,2,1,0.644257703081232,0.355742296918767
6,34,"learning",3,5,6,"right","Right",1315.51,25,28,6,27,30,5,1,6,2,0.440324449594438,0.559675550405562
6,35,"learning",3,6,5,"left","Left",941.44,28,30,6,30,27,5,1,6,1,0.557077625570776,0.442922374429224
6,36,"learning",3,5,6,"right","Right",1773.08,24,33,6,27,30,5,1,6,2,0.479134466769706,0.520865533230294
6,37,"learning",3,6,5,"left","Left",967.82,32,26,6,30,27,5,1,6,1,0.350626118067979,0.649373881932022
6,38,"learning",3,6,5,"left","Left",1874.01,27,30,6,30,27,5,1,6,1,0.564912280701754,0.435087719298246
6,39,"learning",3,5,6,"right","Right",2216.85,28,29,6,27,30,5,1,6,2,0.557560672059739,0.442439327940261
6,40,"learning",1,1,2,"right","Right",1196.41,16,18,2,15,18,1,1,2,2,0.341407151095732,0.658592848904268
6,41,"learning",4,7,8,"right","Right",1300.74,35,37,8,33,36,7,1,8,2,0.565420560747664,0.434579439252336
6,42,"learning",1,1,2,"right","Right",1009.41,14,17,2,15,18,1,1,2,2,0.30514096185738,0.69485903814262
6,43,"learning",3,6,5,"left","Left",2199.65,30,28,6,30,27,5,1,6,1,0.706563706563706,0.293436293436293
6,44,"learning",3,6,5,"left","Left",1345.31,30,24,6,30,27,5,1,6,1,0.487128712871287,0.512871287128713
6,45,"learning",2,4,3,"left","Left",1413.86,21,24,4,24,21,3,1,4,1,0.37217598097503,0.62782401902497
6,46,"learning",3,5,6,"right","Right",1249.65,28,30,6,27,30,5,1,6,2,0.468384074941452,0.531615925058548
6,47,"learning",4,8,7,"left","Left",2007.08,38,35,8,36,33,7,1,8,1,0.472708547888774,0.527291452111226
6,48,"learning",1,2,1,"left","Left",908.61,15,18,2,18,15,1,1,2,1,1,0
6,49,"learning",4,7,8,"right","Right",1902.59,31,34,8,33,36,7,1,8,2,0.321937321937322,0.678062678062678
6,50,"learning",1,1,2,"right","Right",2709.5,12,16,2,15,18,1,1,2,2,0.531365313653137,0.468634686346863
6,51,"learning",1,1,2,"right","Right",1593.71,12,21,2,15,18,1,1,2,2,0.37007874015748,0.62992125984252
6,52,"learning",3,5,6,"right","Right",1088.32,28,31,6,27,30,5,1,6,2,0.4332892998679,0.5667107001321
6,53,"learning",2,3,4,"right","Right",1258.03,22,25,4,21,24,3,1,4,2,0.194594594594595,0.805405405405405
6,54,"learning",1,2,1,"left","Left",2368.62,16,18,2,18,15,1,1,2,1,0.388008270158511,0.611991729841489
6,55,"learning",2,4,3,"left","Left",1187.57,22,24,4,24,21,3,1,4,1,0.834298957126304,0.165701042873696
6,56,"learning",2,3,4,"right","Right",3599.38,22,20,4,21,24,3,1,4,2,0.308812818645302,0.691187181354698
6,57,"learning",1,2,1,"left","Left",2764.69,20,16,2,18,15,1,1,2,1,0.544603252833908,0.455396747166092
6,58,"learning",1,2,1,"left","Left",4453.65,20,17,2,18,15,1,1,2,1,0.944836433611289,0.0551635663887107
6,59,"learning",2,4,3,"left","Left",1010.36,23,21,4,24,21,3,1,4,1,0.877094972067039,0.122905027932961
6,60,"learning",1,1,2,"right","Right",962.51,17,19,2,15,18,1,1,2,2,0.64525993883792,0.35474006116208
6,61,"learning",2,3,4,"right","Right",1038.09,18,23,4,21,24,3,1,4,2,0.516923076923077,0.483076923076923
6,62,"learning",4,7,8,"right","Right",2489.44,34,36,8,33,36,7,1,8,2,0.0939794419970631,0.906020558002937
6,63,"learning",1,2,1,"left","Left",4172.67,20,13,2,18,15,1,1,2,1,0.566796368352789,0.433203631647211
6,64,"learning",4,8,7,"left","Left",913.46,36,32,8,36,33,7,1,8,1,0.535483870967742,0.464516129032258
6,65,"learning",3,6,5,"left","Left",1429.6,29,27,6,30,27,5,1,6,1,0.547297297297297,0.452702702702703
6,66,"learning",1,2,1,"left","Left",1336.04,19,15,2,18,15,1,1,2,1,0.581818181818182,0.418181818181818
6,67,"learning",1,2,1,"left","Left",4803.54,17,14,2,18,15,1,1,2,1,0.795698924731183,0.204301075268817
6,68,"learning",2,4,3,"left","Left",837.05,24,22,4,24,21,3,1,4,1,0.36144578313253,0.63855421686747
6,69,"learning",4,7,8,"right","Right",633.63,30,35,8,33,36,7,1,8,2,0.391437308868502,0.608562691131499
6,70,"learning",3,5,6,"right","Right",3534.22,28,26,6,27,30,5,1,6,2,0.315705128205128,0.684294871794872
6,71,"learning",1,2,1,"left","Left",1555.4,18,14,2,18,15,1,1,2,1,0.790055248618785,0.209944751381215
6,72,"learning",3,6,5,"left","Left",3697.48,30,26,6,30,27,5,1,6,1,0.702430077945896,0.297569922054104
6,73,"learning",1,1,2,"right","Right",2688.34,19,17,2,15,18,1,1,2,2,0.286524822695035,0.713475177304964
6,74,"learning",1,2,1,"left","Left",1357.7,18,14,2,18,15,1,1,2,1,0.681481481481481,0.318518518518519
6,75,"learning",1,1,2,"right","Left",1700.04,16,19,1,15,18,1,0,1,1,0.610121836925961,0.389878163074039
6,76,"learning",2,3,4,"right","Right",858.33,20,23,4,21,24,3,1,4,2,0.666666666666667,0.333333333333333
6,77,"learning",4,7,8,"right","Right",1481.66,37,35,8,33,36,7,1,8,2,0.51685393258427,0.48314606741573
6,78,"learning",1,1,2,"right","Right",3299.17,12,18,2,15,18,1,1,2,2,0.519754170324846,0.480245829675154
6,79,"learning",4,7,8,"right","Right",2810.29,30,34,8,33,36,7,1,8,2,0.368852459016393,0.631147540983607
6,80,"learning",4,7,8,"right","Right",2386.25,32,35,8,33,36,7,1,8,2,0.44922913343966,0.55077086656034
6,81,"learning",4,8,7,"left","Left",2422.65,35,33,8,36,33,7,1,8,1,0.453446191051995,0.546553808948005
6,82,"learning",3,6,5,"left","Left",1300.64,31,29,6,30,27,5,1,6,1,0.682704811443433,0.317295188556567
6,83,"learning",3,5,6,"right","Right",972.34,28,30,6,27,30,5,1,6,2,0.269058295964126,0.730941704035874
6,84,"learning",2,4,3,"left","Left",814.37,24,20,4,24,21,3,1,4,1,0.555984555984556,0.444015444015444
6,85,"learning",4,8,7,"left","Left",1702.09,37,33,8,36,33,7,1,8,1,0.711159737417943,0.288840262582057
6,86,"learning",1,1,2,"right","Right",1155.76,16,19,2,15,18,1,1,2,2,0.188790560471976,0.811209439528024
6,87,"learning",4,7,8,"right","Right",1917,34,37,8,33,36,7,1,8,2,0.328335832083958,0.671664167916042
6,88,"learning",1,2,1,"left","Left",1434.12,18,16,2,18,15,1,1,2,1,0.822222222222222,0.177777777777778
6,89,"learning",2,3,4,"right","Right",1832.05,23,25,4,21,24,3,1,4,2,0.252225519287834,0.747774480712166
6,90,"learning",2,4,3,"left","Left",578.73,24,18,4,24,21,3,1,4,1,1,0
6,91,"learning",3,6,5,"left","Left",1649.65,30,26,6,30,27,5,1,6,1,0.659259259259259,0.340740740740741
6,92,"learning",4,8,7,"left","Left",1262.67,35,32,8,36,33,7,1,8,1,0.571428571428571,0.428571428571429
6,93,"learning",2,3,4,"right","Right",1335.93,22,25,4,21,24,3,1,4,2,0.728571428571429,0.271428571428571
6,94,"learning",2,4,3,"left","Left",833.11,26,20,4,24,21,3,1,4,1,1,0
6,95,"learning",1,1,2,"right","Right",904.16,12,17,2,15,18,1,1,2,2,0.505119453924915,0.494880546075085
6,96,"learning",4,8,7,"left","Left",738.63,34,36,8,36,33,7,1,8,1,1,0
6,97,"learning",3,5,6,"right","Right",1229.6,28,31,6,27,30,5,1,6,2,0.442437923250564,0.557562076749436
6,98,"learning",3,5,6,"right","Right",1093.55,29,31,6,27,30,5,1,6,2,0.404123711340206,0.595876288659794
6,99,"learning",1,1,2,"right","Right",1688.94,16,19,2,15,18,1,1,2,2,0.320661157024793,0.679338842975207
6,100,"learning",2,3,4,"right","Right",664.4,22,23,4,21,24,3,1,4,2,0.377245508982036,0.622754491017964
6,101,"learning",4,7,8,"right","Right",3065.25,30,39,8,33,36,7,1,8,2,0.310853530031612,0.689146469968388
6,102,"learning",2,4,3,"left","Left",839.02,24,20,4,24,21,3,1,4,1,0.714285714285714,0.285714285714286
6,103,"learning",3,6,5,"left","Right",1345.71,32,28,5,30,27,5,0,5,2,0.375,0.625
6,104,"learning",3,5,6,"right","Right",1213.53,31,29,6,27,30,5,1,6,2,0.0912052117263844,0.908794788273616
6,105,"learning",2,4,3,"left","Left",1205.69,26,22,4,24,21,3,1,4,1,0.672413793103448,0.327586206896552
6,106,"learning",4,7,8,"right","Right",820.73,34,37,8,33,36,7,1,8,2,0.403183023872679,0.596816976127321
6,107,"learning",1,2,1,"left","Left",917.63,20,14,2,18,15,1,1,2,1,0.779141104294478,0.220858895705521
6,108,"learning",3,6,5,"left","Left",1489.76,29,26,6,30,27,5,1,6,1,0.495327102803738,0.504672897196262
6,109,"learning",4,8,7,"left","Left",1472.58,38,34,8,36,33,7,1,8,1,0.843817787418655,0.156182212581345
6,110,"learning",1,2,1,"left","Left",795.25,19,17,2,18,15,1,1,2,1,0.771971496437055,0.228028503562945
6,111,"learning",4,7,8,"right","Right",685.56,34,32,8,33,36,7,1,8,2,0.423728813559322,0.576271186440678
6,112,"learning",3,5,6,"right","Right",1481.17,26,29,6,27,30,5,1,6,2,0.138047138047138,0.861952861952862
6,113,"learning",1,1,2,"right","Right",1003.53,16,17,2,15,18,1,1,2,2,0.142857142857143,0.857142857142857
6,114,"learning",4,7,8,"right","Right",1985.5,30,36,8,33,36,7,1,8,2,0.490445859872611,0.509554140127389
6,115,"learning",3,6,5,"left","Left",1455.85,32,29,6,30,27,5,1,6,1,0.289017341040462,0.710982658959538
6,116,"learning",3,5,6,"right","Right",663.16,28,31,6,27,30,5,1,6,2,0,1
6,117,"learning",2,3,4,"right","Right",642.45,19,22,4,21,24,3,1,4,2,0.173913043478261,0.826086956521739
6,118,"learning",2,3,4,"right","Right",612.97,22,24,4,21,24,3,1,4,2,0,1
6,119,"learning",4,8,7,"left","Left",1490.3,36,32,8,36,33,7,1,8,1,0.593130779392338,0.406869220607662
6,120,"learning",2,3,4,"right","Right",576.49,18,24,4,21,24,3,1,4,2,0,1
6,121,"transfer",100,3,2,"left","Right",1662.47,NA,NA,2,21,18,2,0,2,2,0.820428336079077,0.179571663920923
6,122,"transfer",100,6,2,"left","Left",3664.68,NA,NA,6,30,18,5,1,6,1,0.632102272727273,0.367897727272727
6,123,"transfer",100,1,3,"right","Left",1418.21,NA,NA,1,15,21,2,0,1,1,0.751091703056769,0.248908296943231
6,124,"transfer",100,1,4,"right","Right",1016.06,NA,NA,4,15,24,3,1,4,2,0.590847913862719,0.409152086137281
6,125,"transfer",100,7,5,"left","Left",4339.6,NA,NA,7,33,27,6,1,7,1,0.622458270106222,0.377541729893778
