"subject","trial_number","context","available_option_1","available_option_2","LEFT_INDEX","UP_INDEX","RIGHT_INDEX","DOWN_INDEX","CHOICE_KEY","RT","Left_Outcome","Up_Outcome","Right_Outcome","Down_Outcome","Points","chosen_option","EV_1","EV_2","correct_option","correct","option_1","option_2","option_3","option_4","avail_1","avail_2","choice","choice_id","outcome_1","outcome_2","outcome_3","outcome_4","pre_fix_1","pre_fix_2","pre_fix_3","pre_fix_4","pre_fix_avail_1","pre_fix_avail_2","post_fix_1","post_fix_2","post_fix_3","post_fix_4"
1,1,"PSC",2,3,0,1,2,3,"Right",1036.81,21,19,48,26,48,2,47,30,2,1,5,6,7,8,7,8,7,1,21,19,48,26,0.200873362445415,0,0.799126637554585,0,0.799126637554585,0,0,0.236559139784946,0.447516641065028,0.315924219150026
1,2,"PSC",0,2,2,1,0,3,"Left",1365.31,46,27,21,34,94,2,20,47,2,1,5,6,7,8,5,7,7,2,21,27,46,34,0.465174129353234,0.111940298507463,0.422885572139303,0,0.465174129353234,0.422885572139303,0.317460317460317,0,0.482539682539683,0.2
1,3,"PSC",0,1,1,0,3,2,"Left",1246.74,25,19,31,46,119,1,20,23,1,1,5,6,7,8,5,6,6,2,19,25,46,31,0.334398296059638,0.665601703940362,0,0,0.334398296059638,0.665601703940362,0.0764861794774707,0.305187429004165,0.560772434683832,0.0575539568345324
1,4,"PSC",0,2,0,1,2,3,"Right",1409.53,24,20,45,31,164,2,20,47,2,1,5,6,7,8,5,7,7,2,24,20,45,31,0.207329842931937,0.127748691099476,0.664921465968586,0,0.207329842931937,0.664921465968586,0.0607876712328767,0.0710616438356164,0.845890410958904,0.0222602739726027
1,5,"PSC",0,1,0,2,3,1,"Down",1615.89,19,47,27,25,189,1,20,23,1,1,5,6,7,8,5,6,6,2,19,25,47,27,0.329795918367347,0.670204081632653,0,0,0.329795918367347,0.670204081632653,0.13103953147877,0.0790629575402635,0.538799414348463,0.251098096632504
1,6,"PSC",1,3,2,0,3,1,"Down",1863.81,45,21,31,22,211,1,23,30,3,0,5,6,7,8,6,8,6,1,21,22,45,31,0.115353371242892,0.532087733549959,0,0.352558895207149,0.532087733549959,0.352558895207149,0.264600529512537,0.156050459429995,0.263510356642268,0.3158386544152
1,7,"PSC",2,3,0,3,2,1,"Right",1942.42,15,30,47,25,258,2,47,30,2,1,5,6,7,8,7,8,7,1,15,25,47,30,0.109215017064846,0,0.666894197952218,0.223890784982935,0.666894197952218,0.223890784982935,0.29368029739777,0.0743494423791822,0.353159851301115,0.278810408921933
1,8,"PSC",2,3,0,3,2,1,"Right",1261.67,21,27,50,28,308,2,47,30,2,1,5,6,7,8,7,8,7,1,21,28,50,27,0,0,0.669703872437358,0.330296127562642,0.669703872437358,0.330296127562642,0.237687366167024,0,0.449678800856531,0.312633832976445
1,9,"NSC",1,2,0,2,3,1,"Down",3024.33,10,39,33,40,348,1,37,40,2,0,1,2,3,4,2,3,2,1,10,40,39,33,0.19047619047619,0.206686930091185,0.391084093211753,0.211752786220871,0.206686930091185,0.391084093211753,0.232270347453594,0.19990480723465,0.318895763921942,0.248929081389814
1,10,"NSC",1,2,2,1,3,0,"Up",1711.35,42,36,32,11,384,1,37,40,2,0,1,2,3,4,2,3,2,1,11,36,42,32,0,0.725274725274725,0.274725274725275,0,0.725274725274725,0.274725274725275,0.372951669778054,0.180460485376478,0.109520846297449,0.337066998548019
1,11,"PSC",0,3,2,0,1,3,"Down",2617.08,47,21,24,29,413,3,20,30,3,1,5,6,7,8,5,8,8,2,21,24,47,29,0.609819121447028,0,0,0.390180878552972,0.609819121447028,0.390180878552972,0.311099531005732,0.0927566440854612,0.222511724856696,0.37363210005211
1,12,"NSC",0,1,0,2,1,3,"Right",2854.77,14,42,37,31,450,1,13,37,1,1,1,2,3,4,1,2,2,2,14,37,42,31,0.382608695652174,0.514009661835749,0,0.103381642512077,0.382608695652174,0.514009661835749,0.214532871972318,0.359861591695502,0.235294117647059,0.190311418685121
1,13,"NSC",1,3,3,1,0,2,"Up",2903.58,28,38,11,42,488,1,37,30,1,1,1,2,3,4,2,4,2,1,11,38,42,28,0,0.63396537510305,0,0.36603462489695,0.63396537510305,0.36603462489695,0,0.388520971302428,0.183222958057395,0.428256070640177
1,14,"PSC",1,3,1,3,0,2,"Left",3266.36,24,31,24,51,512,1,23,30,3,0,5,6,7,8,6,8,6,1,24,24,51,31,0,0.470414201183432,0,0.529585798816568,0.470414201183432,0.529585798816568,0,0.598455598455598,0,0.401544401544402
1,15,"PSC",0,3,3,1,2,0,"Left",2594.87,29,24,46,24,541,3,20,30,3,1,5,6,7,8,5,8,8,2,24,24,46,29,0.429768358797437,0.0413997042878265,0,0.528831936914736,0.429768358797437,0.528831936914736,0.0805725971370143,0.32719836400818,0.176687116564417,0.415541922290389
1,16,"PSC",1,3,1,0,2,3,"Down",2949.47,22,20,50,29,570,3,23,30,3,1,5,6,7,8,6,8,8,2,20,22,50,29,0,0.364694471387003,0,0.635305528612997,0.364694471387003,0.635305528612997,0.236818588025022,0.252606493893357,0.313970807268394,0.196604110813226
1,17,"NSC",0,1,1,3,2,0,"Down",3216.35,40,31,43,9,579,0,13,37,1,0,1,2,3,4,1,2,1,1,9,40,43,31,0.351782363977486,0.648217636022514,0,0,0.351782363977486,0.648217636022514,0.75609756097561,0.24390243902439,0,0
1,18,"PSC",1,2,0,1,3,2,"Down",1682.5,24,25,33,44,623,2,23,47,2,1,5,6,7,8,6,7,7,2,24,25,44,33,0.244206773618538,0,0.755793226381462,0,0,0.755793226381462,0.28421052631579,0.342105263157895,0.373684210526316,0
1,19,"PSC",1,2,0,2,3,1,"Up",1384.5,23,46,29,26,669,2,23,47,2,1,5,6,7,8,6,7,7,2,23,26,46,29,0.150579150579151,0.171814671814672,0.677606177606178,0,0.171814671814672,0.677606177606178,0,0.269430051813472,0.730569948186529,0
1,20,"NSC",0,2,2,0,1,3,"Left",1265.31,41,15,36,29,710,2,13,40,2,1,1,2,3,4,1,3,3,2,15,36,41,29,0.373860182370821,0,0.477203647416413,0.148936170212766,0.373860182370821,0.477203647416413,0,0,0.818652849740933,0.181347150259067
1,21,"PSC",0,1,0,1,2,3,"Up",2124.13,22,23,45,31,733,1,20,23,1,1,5,6,7,8,5,6,6,2,22,23,45,31,0.539661898569571,0.460338101430429,0,0,0.539661898569571,0.460338101430429,0.684039087947883,0.315960912052117,0,0
1,22,"NSC",1,2,1,0,3,2,"Down",1117.24,35,16,29,42,775,2,37,40,2,1,1,2,3,4,2,3,3,2,16,35,42,29,0,0.53822629969419,0.46177370030581,0,0.53822629969419,0.46177370030581,0,0,1,0
1,23,"PSC",0,3,0,2,1,3,"Down",1136.25,24,51,24,30,805,3,20,30,3,1,5,6,7,8,5,8,8,2,24,24,51,30,0.48062015503876,0,0,0.51937984496124,0.48062015503876,0.51937984496124,0.581699346405229,0,0,0.418300653594771
1,24,"NSC",1,3,1,3,2,0,"Up",1962.26,36,30,41,16,835,3,37,30,1,0,1,2,3,4,2,4,4,2,16,36,41,30,0,0.436046511627907,0,0.563953488372093,0.436046511627907,0.563953488372093,0,0.754128440366973,0,0.245871559633028
1,25,"NSC",0,1,2,1,0,3,"Up",1902.24,39,41,13,32,876,1,13,37,1,1,1,2,3,4,1,2,2,2,13,41,39,32,0.369774919614148,0.522508038585209,0.107717041800643,0,0.369774919614148,0.522508038585209,0.404692082111437,0.595307917888563,0,0
1,26,"NSC",2,3,1,3,2,0,"Right",816.15,36,26,40,11,916,2,40,30,2,1,1,2,3,4,3,4,3,1,11,36,40,26,0,0.250883392226148,0.749116607773852,0,0.749116607773852,0,0.227557411273486,0.164926931106472,0.607515657620042,0
1,27,"NSC",0,3,0,1,3,2,"Left",2694.11,11,37,32,37,927,0,13,30,3,0,1,2,3,4,1,4,1,1,11,37,37,32,0.43859649122807,0.124946512623021,0,0.436456996148909,0.43859649122807,0.436456996148909,0.329166666666667,0,0,0.670833333333333
1,28,"NSC",2,3,1,0,3,2,"Down",2275.09,38,15,34,39,966,2,40,30,2,1,1,2,3,4,3,4,3,1,15,38,39,34,0,0.212862834376779,0.545816733067729,0.241320432555492,0.545816733067729,0.241320432555492,0.232198142414861,0,0.303405572755418,0.464396284829721
1,29,"PSC",1,3,2,0,1,3,"Down",3843.34,46,17,25,28,994,3,23,30,3,1,5,6,7,8,6,8,8,2,17,25,46,28,0,0.633281972265023,0,0.366718027734977,0.633281972265023,0.366718027734977,0,0.545454545454545,0,0.454545454545455
1,30,"NSC",0,3,2,1,3,0,"Right",1727.93,37,42,29,10,1023,3,13,30,3,1,1,2,3,4,1,4,4,2,10,42,37,29,0.521739130434783,0,0,0.478260869565217,0.521739130434783,0.478260869565217,0.609230769230769,0,0,0.390769230769231
1,31,"NSC",0,2,3,1,2,0,"Right",1064.23,34,38,40,14,1063,2,13,40,2,1,1,2,3,4,1,3,3,2,14,38,40,34,0.343575418994413,0,0.656424581005587,0,0.343575418994413,0.656424581005587,0,0,1,0
1,32,"PSC",1,2,1,3,2,0,"Right",1498.16,22,31,48,22,1111,2,23,47,2,1,5,6,7,8,6,7,7,2,22,22,48,31,0,0.405897658282741,0.594102341717259,0,0.405897658282741,0.594102341717259,0,0.415929203539823,0.584070796460177,0
1,33,"PSC",0,1,2,3,1,0,"Right",1268.46,48,31,21,18,1132,1,20,23,1,1,5,6,7,8,5,6,6,2,18,21,48,31,0.554242749731472,0.445757250268528,0,0,0.554242749731472,0.445757250268528,0.4921875,0.5078125,0,0
1,34,"NSC",2,3,2,0,3,1,"Left",730.97,39,14,29,35,1171,2,40,30,2,1,1,2,3,4,3,4,3,1,14,35,39,29,0,0,0.950617283950617,0.0493827160493827,0.950617283950617,0.0493827160493827,0,0,0.718562874251497,0.281437125748503
1,35,"NSC",1,3,2,3,1,0,"Right",1795.85,42,31,37,12,1208,1,37,30,1,1,1,2,3,4,2,4,2,1,12,37,42,31,0,0.466271312083024,0.225352112676056,0.308376575240919,0.466271312083024,0.308376575240919,0,1,0,0
1,36,"NSC",1,3,1,3,2,0,"Left",1488.5,37,31,40,15,1245,1,37,30,1,1,1,2,3,4,2,4,2,1,15,37,40,31,0,0.415329768270945,0,0.584670231729055,0.415329768270945,0.584670231729055,0.54320987654321,0.45679012345679,0,0
1,37,"PSC",2,3,2,1,3,0,"Left",1815.59,45,21,34,15,1290,2,47,30,2,1,5,6,7,8,7,8,7,1,15,21,45,34,0,0,0.6704021094265,0.3295978905735,0.6704021094265,0.3295978905735,0,0,1,0
1,38,"PSC",0,3,0,2,3,1,"Right",1693.69,22,47,28,26,1318,3,20,30,3,1,5,6,7,8,5,8,8,2,22,26,47,28,0.666146645865835,0,0,0.333853354134165,0.666146645865835,0.333853354134165,0.242105263157895,0,0,0.757894736842105
1,39,"PSC",1,2,0,3,1,2,"Down",1517.87,20,28,20,46,1364,2,23,47,2,1,5,6,7,8,6,7,7,2,20,20,46,28,0,0.333611342785655,0.666388657214345,0,0.333611342785655,0.666388657214345,0,0,1,0
1,40,"NSC",2,3,0,2,3,1,"Up",2100.62,13,40,30,33,1404,2,40,30,2,1,1,2,3,4,3,4,3,1,13,33,40,30,0.102564102564103,0.254807692307692,0.30448717948718,0.338141025641026,0.30448717948718,0.338141025641026,0,0.31578947368421,0.473684210526316,0.210526315789474
1,41,"PSC",2,3,0,1,2,3,"Right",1062.6,21,21,50,29,1454,2,47,30,2,1,5,6,7,8,7,8,7,1,21,21,50,29,0,0,0.488950276243094,0.511049723756906,0.488950276243094,0.511049723756906,0,0,1,0
1,42,"NSC",0,1,3,0,1,2,"Right",1865.94,31,16,34,38,1488,1,13,37,1,1,1,2,3,4,1,2,2,2,16,34,38,31,0.332835820895522,0.549253731343284,0.117910447761194,0,0.332835820895522,0.549253731343284,0,0,0,0
1,43,"NSC",0,3,2,3,0,1,"Up",2064.23,43,28,18,35,1516,3,13,30,3,1,1,2,3,4,1,4,4,2,18,35,43,28,0.527741935483871,0,0,0.472258064516129,0.527741935483871,0.472258064516129,0,0,0.559139784946237,0.440860215053763
1,44,"NSC",0,2,0,3,2,1,"Right",1921.68,12,31,40,37,1556,2,13,40,2,1,1,2,3,4,1,3,3,2,12,37,40,31,0.670750382848392,0,0.329249617151608,0,0.670750382848392,0.329249617151608,0,0,1,0
1,45,"NSC",0,1,2,0,1,3,"Right",2002.5,42,13,34,27,1590,1,13,37,1,1,1,2,3,4,1,2,2,2,13,34,42,27,0.360025624599616,0.639974375400384,0,0,0.360025624599616,0.639974375400384,0,0,0,0
1,46,"NSC",1,2,2,3,0,1,"Left",719.46,41,31,15,38,1631,2,37,40,2,1,1,2,3,4,2,3,3,2,15,38,41,31,0,0,0.551440329218107,0.448559670781893,0,0.551440329218107,0,0,0,0
1,47,"PSC",0,1,2,1,3,0,"Up",1305.32,46,24,32,21,1655,1,20,23,1,1,5,6,7,8,5,6,6,2,21,24,46,32,0.57258064516129,0.42741935483871,0,0,0.57258064516129,0.42741935483871,0.45016077170418,0.54983922829582,0,0
1,48,"NSC",1,2,1,0,3,2,"Down",895.54,36,11,28,39,1694,2,37,40,2,1,1,2,3,4,2,3,3,2,11,36,39,28,0,0.664092664092664,0.335907335907336,0,0.664092664092664,0.335907335907336,0,0,1,0
1,49,"PSC",0,2,1,2,3,0,"Up",1252.18,25,48,31,17,1742,2,20,47,2,1,5,6,7,8,5,7,7,2,17,25,48,31,0.359659781287971,0,0.640340218712029,0,0.359659781287971,0.640340218712029,0,0,1,0
1,50,"NSC",2,3,3,1,0,2,"Down",1256.17,27,39,10,42,1784,2,40,30,2,1,1,2,3,4,3,4,3,1,10,39,42,27,0,0.134670487106017,0.432664756446991,0.432664756446991,0.432664756446991,0.432664756446991,0,0,1,0
1,51,"PSC",1,3,2,0,3,1,"Right",3027.45,47,22,30,23,1814,3,23,30,3,1,5,6,7,8,6,8,8,2,22,23,47,30,0.04914618908788,0.226572261557684,0.201582673885881,0.522698875468555,0.226572261557684,0.522698875468555,0,0.481283422459893,0.0374331550802139,0.481283422459893
1,52,"NSC",0,2,1,0,3,2,"Down",782.6,38,16,31,40,1854,2,13,40,2,1,1,2,3,4,1,3,3,2,16,38,40,31,0.46865671641791,0,0.53134328358209,0,0.46865671641791,0.53134328358209,1,0,0,0
1,53,"PSC",1,2,0,3,1,2,"Down",1128.69,23,32,25,46,1900,2,23,47,2,1,5,6,7,8,6,7,7,2,23,25,46,32,0,0.456090651558074,0.543909348441926,0,0.456090651558074,0.543909348441926,0,0,1,0
1,54,"PSC",0,3,3,2,1,0,"Left",1398.06,32,45,24,19,1932,3,20,30,3,1,5,6,7,8,5,8,8,2,19,24,45,32,0.480986639260021,0,0,0.519013360739979,0.480986639260021,0.519013360739979,0,0,0.135802469135802,0.864197530864197
1,55,"PSC",0,2,3,1,2,0,"Right",919.75,29,26,51,17,1983,2,20,47,2,1,5,6,7,8,5,7,7,2,17,26,51,29,0.310225303292894,0,0.689774696707106,0,0.310225303292894,0.689774696707106,0,0,1,0
1,56,"NSC",0,2,3,0,2,1,"Right",613.99,31,11,41,36,2024,2,13,40,2,1,1,2,3,4,1,3,3,2,11,36,41,31,0,0,1,0,0,1,0.710261569416499,0,0.289738430583501,0
1,57,"PSC",0,2,2,0,1,3,"Left",1019.09,44,22,28,31,2068,2,20,47,2,1,5,6,7,8,5,7,7,2,22,28,44,31,0.368258859784284,0,0.631741140215716,0,0.368258859784284,0.631741140215716,0,0,1,0
1,58,"NSC",1,3,2,3,1,0,"Right",1243.31,40,29,37,12,2105,1,37,30,1,1,1,2,3,4,2,4,2,1,12,37,40,29,0,0.376288659793814,0.134020618556701,0.489690721649485,0.376288659793814,0.489690721649485,0,1,0,0
1,59,"NSC",0,3,1,2,0,3,"Down",1993.44,37,40,9,29,2134,3,13,30,3,1,1,2,3,4,1,4,4,2,9,37,40,29,0.529180327868852,0,0.0511475409836066,0.419672131147541,0.529180327868852,0.419672131147541,0.238095238095238,0,0,0.761904761904762
1,60,"NSC",0,3,2,0,3,1,"Right",1470.96,39,14,30,37,2164,3,13,30,3,1,1,2,3,4,1,4,4,2,14,37,39,30,0.656188605108055,0,0,0.343811394891945,0.656188605108055,0.343811394891945,0,0,0,1
2,1,"NSC",1,2,0,2,1,3,"Up",2105.41,11,42,36,32,42,2,37,40,2,1,1,2,3,4,2,3,3,2,11,36,42,32,0,0.176949941792782,0.823050058207218,0,0.176949941792782,0.823050058207218,0.0544419698094531,0.11234842860678,0.556050482553823,0.277159119029943
2,2,"NSC",0,3,1,2,0,3,"Right",2979.22,35,43,18,28,60,0,13,30,3,0,1,2,3,4,1,4,1,1,18,35,43,28,0.636744966442953,0,0.0679530201342282,0.295302013422819,0.636744966442953,0.295302013422819,0.395538628944505,0.0669205658324265,0.338411316648531,0.199129488574538
2,3,"NSC",1,3,1,2,0,3,"Down",3227.19,38,42,11,28,88,3,37,30,1,0,1,2,3,4,2,4,4,2,11,38,42,28,0,0.55160744500846,0.181049069373942,0.267343485617597,0.55160744500846,0.267343485617597,0.190114068441065,0.2106463878327,0.365779467680608,0.233460076045627
2,4,"NSC",0,1,1,3,0,2,"Left",5368.55,34,31,16,38,122,1,13,37,1,1,1,2,3,4,1,2,2,2,16,34,38,31,0.284663865546218,0.595063025210084,0,0.120273109243697,0.284663865546218,0.595063025210084,0.208606173994387,0.360149672591207,0.202057998129093,0.229186155285313
2,5,"NSC",0,2,1,0,2,3,"Right",5724.18,37,12,40,31,162,2,13,40,2,1,1,2,3,4,1,3,3,2,12,37,40,31,0.366381879594675,0.0464931452414067,0.507649513212796,0.0794754619511226,0.366381879594675,0.507649513212796,0.0754557015684612,0.222975837219161,0.565069944891903,0.136498516320475
2,6,"NSC",0,2,0,2,1,3,"Up",2675.28,16,40,38,31,202,2,13,40,2,1,1,2,3,4,1,3,3,2,16,38,40,31,0,0,1,0,0,1,0,0.212903225806452,0.456774193548387,0.330322580645161
2,7,"NSC",1,2,3,2,0,1,"Down",1866.37,28,39,11,36,238,1,37,40,2,0,1,2,3,4,2,3,2,1,11,36,39,28,0,0.209713024282561,0.790286975717439,0,0.209713024282561,0.790286975717439,0,0.38662075750123,0.407771765863256,0.205607476635514
2,8,"PSC",1,3,1,2,0,3,"Down",2356.2,24,51,24,31,269,3,23,30,3,1,5,6,7,8,6,8,8,2,24,24,51,31,0.232858990944373,0.538163001293661,0.22509702457956,0.00388098318240621,0.538163001293661,0.00388098318240621,0.26518615284128,0.135858915741346,0.598954931417374,0
2,9,"PSC",0,3,0,2,3,1,"Left",1752.7,24,51,30,24,293,0,20,30,3,0,5,6,7,8,5,8,5,1,24,24,51,30,0.881567973311093,0,0,0.118432026688907,0.881567973311093,0.118432026688907,0.153318077803204,0.100686498855835,0.47254004576659,0.273455377574371
2,10,"NSC",0,2,2,1,0,3,"Right",3478.68,41,36,15,29,308,0,13,40,2,0,1,2,3,4,1,3,1,1,15,36,41,29,0.531531531531532,0,0.468468468468469,0,0.531531531531532,0.468468468468469,0.458333333333333,0,0.541666666666667,0
2,11,"PSC",0,2,1,3,0,2,"Right",2139.65,20,31,24,45,332,0,20,47,2,0,5,6,7,8,5,7,5,1,24,20,45,31,0.526244952893674,0,0.473755047106326,0,0.526244952893674,0.473755047106326,0.209433962264151,0.224528301886792,0.247169811320755,0.318867924528302
2,12,"PSC",2,3,3,0,1,2,"Down",5501.67,30,15,25,47,379,2,47,30,2,1,5,6,7,8,7,8,7,1,15,25,47,30,0.0706015249929399,0.0513979101948602,0.714769839028523,0.163230725783677,0.714769839028523,0.163230725783677,0.251340996168582,0.190038314176245,0.423754789272031,0.134865900383142
2,13,"NSC",0,1,2,1,3,0,"Down",2112.7,43,40,31,9,388,0,13,37,1,0,1,2,3,4,1,2,1,1,9,40,43,31,0.179640718562874,0.820359281437126,0,0,0.179640718562874,0.820359281437126,0.122618061309031,0.770505385252693,0.106876553438277,0
2,14,"PSC",0,3,3,0,2,1,"Left",5207.4,32,19,45,24,420,3,20,30,3,1,5,6,7,8,5,8,8,2,19,24,45,32,0.523342111563323,0,0,0.476657888436677,0.523342111563323,0.476657888436677,0.165057067603161,0.163301141352063,0.347673397717296,0.32396839332748
2,15,"NSC",1,3,1,0,3,2,"Right",1972.67,37,15,31,40,451,3,37,30,1,0,1,2,3,4,2,4,4,2,15,37,40,31,0,0.414388489208633,0,0.585611510791367,0.414388489208633,0.585611510791367,0,0.406779661016949,0,0.593220338983051
2,16,"PSC",0,3,3,2,1,0,"Down",2116.97,29,46,24,24,475,0,20,30,3,0,5,6,7,8,5,8,5,1,24,24,46,29,0.426497277676951,0.0846944948578342,0,0.488808227465215,0.426497277676951,0.488808227465215,0.34020618556701,0.0549828178694158,0.29553264604811,0.309278350515464
2,17,"NSC",0,3,1,0,2,3,"Up",1791.32,37,9,40,29,484,0,13,30,3,0,1,2,3,4,1,4,1,1,9,37,40,29,0.66798418972332,0.126482213438735,0,0.205533596837945,0.66798418972332,0.205533596837945,0.242957746478873,0.073943661971831,0.137323943661972,0.545774647887324
2,18,"PSC",1,3,0,3,1,2,"Right",7127.71,17,28,25,46,509,1,23,30,3,0,5,6,7,8,6,8,6,1,17,25,46,28,0,0.435134588140053,0,0.564865411859947,0.435134588140053,0.564865411859947,0.142602495543672,0.126559714795009,0.474153297682709,0.25668449197861
2,19,"NSC",1,3,1,0,3,2,"Left",1805.06,37,12,29,40,546,1,37,30,1,1,1,2,3,4,2,4,2,1,12,37,40,29,0.169312169312169,0.830687830687831,0,0,0.830687830687831,0,0,0.50487012987013,0.180194805194805,0.314935064935065
2,20,"NSC",0,1,2,3,1,0,"Down",2904.66,42,31,37,14,560,0,13,37,1,0,1,2,3,4,1,2,1,1,14,37,42,31,0.185185185185185,0.814814814814815,0,0,0.185185185185185,0.814814814814815,0.290376569037657,0.709623430962343,0,0
2,21,"PSC",0,1,0,3,2,1,"Down",1633.22,18,31,48,21,581,1,20,23,1,1,5,6,7,8,5,6,6,2,18,21,48,31,0.606741573033708,0,0.393258426966292,0,0.606741573033708,0,0.253748558246828,0.269896193771626,0.277970011534025,0.19838523644752
2,22,"PSC",1,3,2,1,3,0,"Up",1380.08,45,22,31,21,603,1,23,30,3,0,5,6,7,8,6,8,6,1,21,22,45,31,0,0.715953307392996,0,0.284046692607004,0.715953307392996,0.284046692607004,0.3203125,0.375,0,0.3046875
2,23,"NSC",2,3,2,1,3,0,"Right",1456.61,40,33,30,13,633,3,40,30,2,0,1,2,3,4,3,4,4,2,13,33,40,30,0,0,0.739846322722283,0.260153677277717,0.739846322722283,0.260153677277717,0,0,0.571177504393673,0.428822495606327
2,24,"NSC",1,3,1,3,0,2,"Up",1887.74,37,31,12,42,664,3,37,30,1,0,1,2,3,4,2,4,4,2,12,37,42,31,0.100267379679144,0.223262032085562,0,0.676470588235294,0.223262032085562,0.676470588235294,0,0.640316205533597,0,0.359683794466403
2,25,"NSC",0,2,0,2,1,3,"Left",777.49,11,41,36,31,675,0,13,40,2,0,1,2,3,4,1,3,1,1,11,36,41,31,1,0,0,0,1,0,0.0332541567695962,0,0.966745843230404,0
2,26,"PSC",0,3,0,2,3,1,"Right",3629.16,21,47,29,24,704,3,20,30,3,1,5,6,7,8,5,8,8,2,21,24,47,29,0.38839590443686,0,0,0.61160409556314,0.38839590443686,0.61160409556314,0.431318681318681,0,0.307692307692308,0.260989010989011
2,27,"PSC",2,3,3,0,2,1,"Left",1277.14,27,21,50,28,731,3,47,30,2,0,5,6,7,8,7,8,8,2,21,28,50,27,0.221419975932611,0,0.259927797833935,0.518652226233454,0.259927797833935,0.518652226233454,0,0,0.532905296950241,0.467094703049759
2,28,"NSC",0,2,3,2,1,0,"Down",2063.39,34,40,38,14,745,0,13,40,2,0,1,2,3,4,1,3,1,1,14,38,40,34,0.348514851485148,0,0.651485148514852,0,0.348514851485148,0.651485148514852,0.298618490967056,0,0.701381509032944,0
2,29,"PSC",0,2,0,3,1,2,"Down",2122.12,17,31,25,48,793,2,20,47,2,1,5,6,7,8,5,7,7,2,17,25,48,31,0.3625843780135,0,0.301832208293153,0.335583413693346,0.3625843780135,0.301832208293153,1,0,0,0
2,30,"PSC",2,3,3,0,2,1,"Left",4261.95,34,15,45,21,827,3,47,30,2,0,5,6,7,8,7,8,8,2,15,21,45,34,0,0,0.259618208516887,0.740381791483113,0.259618208516887,0.740381791483113,0,0,0.621247113163972,0.378752886836028
2,31,"PSC",0,2,1,0,2,3,"Right",1613.93,27,21,46,34,873,2,20,47,2,1,5,6,7,8,5,7,7,2,21,27,46,34,0.454983922829582,0,0.545016077170418,0,0.454983922829582,0.545016077170418,0.718045112781955,0,0.281954887218045,0
2,32,"NSC",0,3,3,2,1,0,"Down",4157.15,30,39,37,14,887,0,13,30,3,0,1,2,3,4,1,4,1,1,14,37,39,30,0.610261470152935,0.0759743463246177,0,0.313764183522447,0.610261470152935,0.313764183522447,0.281567489114659,0,0.492017416545718,0.226415094339623
2,33,"NSC",1,2,3,2,0,1,"Up",1311.41,31,41,15,38,928,2,37,40,2,1,1,2,3,4,2,3,3,2,15,38,41,31,0,0,1,0,0,1,0,0.675213675213675,0.324786324786325,0
2,34,"PSC",0,1,1,2,0,3,"Left",1159.62,25,47,19,27,953,1,20,23,1,1,5,6,7,8,5,6,6,2,19,25,47,27,0.291917973462002,0.708082026537998,0,0,0.291917973462002,0.708082026537998,0.378995433789954,0.365296803652968,0,0.255707762557078
2,35,"PSC",0,2,3,0,2,1,"Up",2054.26,29,17,51,26,970,0,20,47,2,0,5,6,7,8,5,7,5,1,17,26,51,29,0.665399239543726,0,0.334600760456274,0,0.665399239543726,0.334600760456274,0.316430020283976,0,0.683569979716024,0
2,36,"PSC",1,2,0,2,1,3,"Up",2715.67,24,44,25,33,1014,2,23,47,2,1,5,6,7,8,6,7,7,2,24,25,44,33,0,0.0759725400457666,0.924027459954234,0,0.0759725400457666,0.924027459954234,0,0.291005291005291,0.357142857142857,0.351851851851852
2,37,"NSC",0,1,3,1,2,0,"Down",4270.99,27,34,42,13,1027,0,13,37,1,0,1,2,3,4,1,2,1,1,13,34,42,27,0.149622512010981,0.850377487989019,0,0,0.149622512010981,0.850377487989019,0.136645962732919,0.863354037267081,0,0
2,38,"NSC",2,3,0,3,1,2,"Up",1720.13,10,27,39,42,1054,3,40,30,2,0,1,2,3,4,3,4,4,2,10,39,42,27,0,0,0.1875,0.8125,0.1875,0.8125,0,0,0.102880658436214,0.897119341563786
2,39,"NSC",0,1,1,2,0,3,"Left",915.4,41,39,13,32,1095,1,13,37,1,1,1,2,3,4,1,2,2,2,13,41,39,32,0.518783542039356,0.481216457960644,0,0,0.518783542039356,0.481216457960644,0.482837528604119,0.517162471395881,0,0
2,40,"PSC",0,1,3,2,1,0,"Right",1839,31,45,23,22,1118,1,20,23,1,1,5,6,7,8,5,6,6,2,22,23,45,31,0,0.709608540925267,0.123843416370107,0.166548042704626,0,0.709608540925267,0.54228855721393,0.45771144278607,0,0
2,41,"PSC",1,3,0,1,3,2,"Up",1522.2,20,22,29,50,1140,1,23,30,3,0,5,6,7,8,6,8,6,1,20,22,50,29,0,0.853333333333333,0,0.146666666666667,0.853333333333333,0.146666666666667,0,0.660714285714286,0,0.339285714285714
2,42,"NSC",0,3,2,1,3,0,"Down",964.41,37,42,29,10,1150,0,13,30,3,0,1,2,3,4,1,4,1,1,10,42,37,29,0.330757341576507,0.669242658423493,0,0,0.330757341576507,0,1,0,0,0
2,43,"PSC",0,1,2,1,3,0,"Up",1303.2,46,25,31,19,1175,1,20,23,1,1,5,6,7,8,5,6,6,2,19,25,46,31,0,0.736780258519389,0,0.263219741480611,0,0.736780258519389,0,1,0,0
2,44,"PSC",1,2,0,1,2,3,"Right",1538.67,22,22,48,31,1223,2,23,47,2,1,5,6,7,8,6,7,7,2,22,22,48,31,0,0.731164383561644,0.268835616438356,0,0.731164383561644,0.268835616438356,0,0.321266968325792,0.678733031674208,0
2,45,"PSC",1,3,0,3,2,1,"Down",1146.73,22,30,47,23,1246,1,23,30,3,0,5,6,7,8,6,8,6,1,22,23,47,30,0,0.406896551724138,0,0.593103448275862,0.406896551724138,0.593103448275862,0,0.47808764940239,0,0.52191235059761
2,46,"NSC",2,3,1,3,2,0,"Up",617.71,36,26,40,11,1272,3,40,30,2,0,1,2,3,4,3,4,4,2,11,36,40,26,0,0,0,1,0,1,0,0,0,1
2,47,"PSC",2,3,0,2,1,3,"Down",843.93,21,50,21,29,1301,3,47,30,2,0,5,6,7,8,7,8,8,2,21,21,50,29,0,0,0,0,0,0,0,0,0.0841121495327103,0.91588785046729
2,48,"NSC",0,3,1,2,0,3,"Right",804.35,37,37,11,32,1312,0,13,30,3,0,1,2,3,4,1,4,1,1,11,37,37,32,0.617021276595745,0,0.382978723404255,0,0.617021276595745,0,0.704318936877076,0,0,0.295681063122924
2,49,"PSC",0,2,0,1,2,3,"Right",560.97,22,28,44,31,1356,2,20,47,2,1,5,6,7,8,5,7,7,2,22,28,44,31,0,0,1,0,0,1,0.370860927152318,0,0.629139072847682,0
2,50,"PSC",0,3,2,1,3,0,"Right",806.13,47,26,28,22,1384,3,20,30,3,1,5,6,7,8,5,8,8,2,22,26,47,28,0,0,0,1,0,1,0.548974943052392,0,0,0.451025056947608
2,51,"PSC",1,2,1,0,3,2,"Down",804.94,25,23,32,46,1430,2,23,47,2,1,5,6,7,8,6,7,7,2,23,25,46,32,0,0.421052631578947,0.578947368421053,0,0.421052631578947,0.578947368421053,0,0,1,0
2,52,"NSC",1,3,0,1,3,2,"Up",848.18,16,36,30,41,1466,1,37,30,1,1,1,2,3,4,2,4,2,1,16,36,41,30,0,1,0,0,1,0,0,0.540697674418605,0,0.459302325581395
2,53,"PSC",2,3,1,3,0,2,"Down",1329.68,19,26,21,48,1514,2,47,30,2,1,5,6,7,8,7,8,7,1,21,19,48,26,0.169109357384442,0,0.53325817361894,0.297632468996618,0.53325817361894,0.297632468996618,0,0,0.298941798941799,0.701058201058201
2,54,"PSC",0,1,1,0,3,2,"Left",653.65,24,21,32,46,1538,1,20,23,1,1,5,6,7,8,5,6,6,2,21,24,46,32,0,1,0,0,0,1,0,1,0,0
2,55,"NSC",1,2,1,3,2,0,"Right",1082.78,35,29,42,16,1580,2,37,40,2,1,1,2,3,4,2,3,3,2,16,35,42,29,0,0.317324185248714,0.397941680960549,0.284734133790738,0.317324185248714,0.397941680960549,0,0.528535980148883,0.471464019851117,0
2,56,"PSC",1,2,2,0,3,1,"Left",1131.9,46,23,29,26,1626,2,23,47,2,1,5,6,7,8,6,7,7,2,23,26,46,29,0,0.476076555023923,0.373205741626794,0.150717703349282,0.476076555023923,0.373205741626794,0,0.302752293577982,0.344036697247706,0.353211009174312
2,57,"NSC",1,2,1,0,3,2,"Down",1181.87,40,10,33,39,1665,2,37,40,2,1,1,2,3,4,2,3,3,2,10,40,39,33,0,0,1,0,0,1,0.150862068965517,0,0.849137931034483,0
2,58,"NSC",2,3,3,2,1,0,"Up",2426.29,29,39,35,14,1704,2,40,30,2,1,1,2,3,4,3,4,3,1,14,35,39,29,0,0,0.968561064087062,0.0314389359129383,0.968561064087062,0.0314389359129383,0.514619883040936,0,0.432748538011696,0.0526315789473684
2,59,"PSC",1,2,2,1,3,0,"Left",2197.42,46,20,28,20,1750,2,23,47,2,1,5,6,7,8,6,7,7,2,20,20,46,28,0,0.194719471947195,0.805280528052805,0,0.194719471947195,0.805280528052805,0,0.11470113085622,0.478190630048465,0.407108239095315
2,60,"NSC",2,3,3,1,2,0,"Right",1599.17,34,38,39,15,1789,2,40,30,2,1,1,2,3,4,3,4,3,1,15,38,39,34,0,0.147727272727273,0.852272727272727,0,0.852272727272727,0,0.340040241448692,0.21327967806841,0.241448692152918,0.20523138832998
3,1,"PSC",1,3,0,2,1,3,"Down",2205.08,21,45,22,31,31,3,23,30,3,1,5,6,7,8,6,8,8,2,21,22,45,31,0.0936490850376749,0.17438105489774,0,0.731969860064586,0.17438105489774,0.731969860064586,0.0691997452770113,0.232646996391424,0.0793886648270006,0.618764593504564
3,2,"PSC",1,2,3,2,0,1,"Up",3357.17,31,48,22,22,79,2,23,47,2,1,5,6,7,8,6,7,7,2,22,22,48,31,0.0817816721431179,0.502373128879153,0.415845198977729,0,0.502373128879153,0.415845198977729,0,0.40009842519685,0.59990157480315,0
3,3,"PSC",0,2,2,3,0,1,"Right",2558.12,51,29,17,26,96,0,20,47,2,0,5,6,7,8,5,7,5,1,17,26,51,29,0.744121715076072,0,0.255878284923928,0,0.744121715076072,0.255878284923928,0.559928443649374,0,0.440071556350626,0
3,4,"NSC",0,3,1,3,2,0,"Up",5339.14,42,29,37,10,125,3,13,30,3,1,1,2,3,4,1,4,4,2,10,42,37,29,0.407011777595179,0.271706381813202,0,0.321281840591619,0.407011777595179,0.321281840591619,0.225262197902417,0.321477428180575,0.165982672138623,0.287277701778386
3,5,"NSC",0,2,2,0,1,3,"Left",2988.08,40,14,38,34,165,2,13,40,2,1,1,2,3,4,1,3,3,2,14,38,40,34,0.456736035049288,0,0.417305585980285,0.125958378970427,0.456736035049288,0.417305585980285,0.296954314720812,0,0.261421319796954,0.441624365482233
3,6,"NSC",1,3,0,3,1,2,"Right",2659.75,11,28,38,42,203,1,37,30,1,1,1,2,3,4,2,4,2,1,11,38,42,28,0.0681502086230876,0.492350486787204,0,0.439499304589708,0.492350486787204,0.439499304589708,0.200581395348837,0.395348837209302,0,0.40406976744186
3,7,"PSC",0,1,1,2,0,3,"Left",1589.86,21,48,18,31,224,1,20,23,1,1,5,6,7,8,5,6,6,2,18,21,48,31,0.409618573797678,0.590381426202322,0,0,0.409618573797678,0.590381426202322,0.41025641025641,0.58974358974359,0,0
3,8,"PSC",0,3,0,3,1,2,"Left",5832.18,22,28,26,47,246,0,20,30,3,0,5,6,7,8,5,8,5,1,22,26,47,28,0.464065201284268,0,0,0.535934798715732,0.464065201284268,0.535934798715732,0.622418879056047,0,0,0.377581120943953
3,9,"PSC",2,3,0,2,3,1,"Up",1704.54,21,50,29,21,296,2,47,30,2,1,5,6,7,8,7,8,7,1,21,21,50,29,0,0,0.579746835443038,0.420253164556962,0.579746835443038,0.420253164556962,0,0,0.190104166666667,0.809895833333333
3,10,"NSC",2,3,3,1,0,2,"Down",2969.7,27,39,10,42,338,2,40,30,2,1,1,2,3,4,3,4,3,1,10,39,42,27,0,0,0.316877152698048,0.683122847301952,0.316877152698048,0.683122847301952,0,0,0.452954048140044,0.547045951859956
3,11,"NSC",0,2,3,1,0,2,"Down",1931.62,31,36,11,41,379,2,13,40,2,1,1,2,3,4,1,3,3,2,11,36,41,31,0.52401280683031,0,0.47598719316969,0,0.52401280683031,0.47598719316969,0,0,0,0
3,12,"PSC",0,3,3,2,1,0,"Left",2733.43,29,46,24,24,408,3,20,30,3,1,5,6,7,8,5,8,8,2,24,24,46,29,0.309808612440191,0,0,0.690191387559809,0.309808612440191,0.690191387559809,0.442831215970962,0,0,0.557168784029038
3,13,"PSC",2,3,2,1,0,3,"Left",3751.45,47,25,15,30,455,2,47,30,2,1,5,6,7,8,7,8,7,1,15,25,47,30,0,0,0.577301927194861,0.422698072805139,0.577301927194861,0.422698072805139,0,0,0.585046728971963,0.414953271028037
3,14,"NSC",2,3,1,2,3,0,"Up",2191.39,38,39,34,15,494,2,40,30,2,1,1,2,3,4,3,4,3,1,15,38,39,34,0,0.123263888888889,0.664930555555556,0.211805555555556,0.664930555555556,0.211805555555556,0,0,0.233463035019455,0.766536964980545
3,15,"PSC",1,3,3,2,1,0,"Left",1655.89,28,46,25,17,522,3,23,30,3,1,5,6,7,8,6,8,8,2,17,25,46,28,0,0.403683806600153,0,0.596316193399846,0.403683806600153,0.596316193399846,0,0.635097493036212,0,0.364902506963788
3,16,"NSC",1,3,0,2,1,3,"Right",2312.15,12,42,37,31,559,1,37,30,1,1,1,2,3,4,2,4,2,1,12,37,42,31,0.0631911532385466,0.765139547130068,0,0.171669299631385,0.765139547130068,0.171669299631385,0,0.73474801061008,0,0.26525198938992
3,17,"NSC",2,3,1,2,3,0,"Up",2995.11,36,40,26,11,599,2,40,30,2,1,1,2,3,4,3,4,3,1,11,36,40,26,0.06070826306914,0.0539629005059022,0.397133220910624,0.488195615514334,0.397133220910624,0.488195615514334,0,0,0.273204903677758,0.726795096322242
3,18,"NSC",0,3,3,2,1,0,"Down",3159.56,29,40,37,9,608,0,13,30,3,0,1,2,3,4,1,4,1,1,9,37,40,29,0.534025374855825,0,0,0.465974625144175,0.534025374855825,0.465974625144175,0.567019400352734,0,0,0.432980599647266
3,19,"NSC",1,2,3,0,1,2,"Right",2194.65,31,15,38,41,646,1,37,40,2,0,1,2,3,4,2,3,2,1,15,38,41,31,0,0.884450784593438,0.115549215406562,0,0.884450784593438,0.115549215406562,0,0.634517766497462,0.365482233502538,0
3,20,"NSC",1,3,1,0,2,3,"Left",1568.73,37,12,40,29,683,1,37,30,1,1,1,2,3,4,2,4,2,1,12,37,40,29,0,0.775577557755776,0,0.224422442244224,0.775577557755776,0.224422442244224,0,0.309119010819165,0.282843894899536,0.408037094281298
3,21,"PSC",0,3,1,0,2,3,"Down",2496.19,24,24,51,30,713,3,20,30,3,1,5,6,7,8,5,8,8,2,24,24,51,30,0.396011396011396,0.0968660968660969,0,0.507122507122507,0.396011396011396,0.507122507122507,0.321131447587354,0.121464226289517,0,0.557404326123128
3,22,"NSC",2,3,3,2,0,1,"Up",1736.93,30,40,13,33,753,2,40,30,2,1,1,2,3,4,3,4,3,1,13,33,40,30,0,0,0.519565217391304,0.480434782608696,0.519565217391304,0.480434782608696,0,0.140043763676149,0.424507658643326,0.435448577680525
3,23,"NSC",0,1,3,0,2,1,"Down",1830.47,32,13,39,41,794,1,13,37,1,1,1,2,3,4,1,2,2,2,13,41,39,32,0.349425287356322,0.496551724137931,0,0.154022988505747,0.349425287356322,0.496551724137931,1,0,0,0
3,24,"PSC",1,2,3,1,2,0,"Right",1565.2,29,26,46,23,840,2,23,47,2,1,5,6,7,8,6,7,7,2,23,26,46,29,0,0.509859154929577,0.490140845070423,0,0.509859154929577,0.490140845070423,0,0.533333333333333,0.276190476190476,0.19047619047619
3,25,"PSC",0,3,2,0,1,3,"Down",2354.86,47,21,24,29,869,3,20,30,3,1,5,6,7,8,5,8,8,2,21,24,47,29,0.379061371841155,0.104693140794224,0,0.516245487364621,0.379061371841155,0.516245487364621,0.509293680297398,0,0,0.490706319702602
3,26,"NSC",0,2,0,2,1,3,"Up",1813.52,16,40,38,31,909,2,13,40,2,1,1,2,3,4,1,3,3,2,16,38,40,31,0.378378378378378,0,0.621621621621622,0,0.378378378378378,0.621621621621622,0.336898395721925,0,0.663101604278075,0
3,27,"PSC",2,3,1,2,3,0,"Up",1433.83,19,48,26,21,957,2,47,30,2,1,5,6,7,8,7,8,7,1,21,19,48,26,0,0,0.818181818181818,0.181818181818182,0.818181818181818,0.181818181818182,0.219135802469136,0.246913580246914,0.308641975308642,0.225308641975309
3,28,"PSC",0,2,1,2,3,0,"Up",1911.17,27,46,34,21,1003,2,20,47,2,1,5,6,7,8,5,7,7,2,21,27,46,34,0.39039039039039,0,0.60960960960961,0,0.39039039039039,0.60960960960961,0.328125,0,0.671875,0
3,29,"NSC",0,3,1,3,0,2,"Up",3336.27,37,32,11,37,1035,3,13,30,3,1,1,2,3,4,1,4,4,2,11,37,37,32,0.484235294117647,0,0.142117647058824,0.373647058823529,0.484235294117647,0.373647058823529,0.66340160284951,0,0,0.33659839715049
3,30,"PSC",1,3,1,2,3,0,"Right",1837.86,22,50,29,20,1064,3,23,30,3,1,5,6,7,8,6,8,8,2,20,22,50,29,0,0.36518771331058,0.233788395904437,0.401023890784983,0.36518771331058,0.401023890784983,0,0.425352112676056,0,0.574647887323944
3,31,"PSC",2,3,3,1,0,2,"Down",2789.96,27,28,21,50,1114,2,47,30,2,1,5,6,7,8,7,8,7,1,21,28,50,27,0,0.0557129367327668,0.392823418319169,0.551463644948064,0.392823418319169,0.551463644948064,0,0,0.825426944971537,0.174573055028463
3,32,"NSC",1,3,2,1,0,3,"Up",1880.79,41,36,16,30,1150,1,37,30,1,1,1,2,3,4,2,4,2,1,16,36,41,30,0,0.691025641025641,0.11025641025641,0.198717948717949,0.691025641025641,0.198717948717949,0,0.441860465116279,0.267441860465116,0.290697674418605
3,33,"PSC",0,3,3,0,1,2,"Left",1852.22,32,19,24,45,1182,3,20,30,3,1,5,6,7,8,5,8,8,2,19,24,45,32,0.431034482758621,0.109195402298851,0,0.459770114942529,0.431034482758621,0.459770114942529,0.12,0.431111111111111,0.208888888888889,0.24
3,34,"NSC",1,2,3,2,1,0,"Right",2363.19,28,39,36,11,1218,1,37,40,2,0,1,2,3,4,2,3,2,1,11,36,39,28,0,0.355151515151515,0.644848484848485,0,0.355151515151515,0.644848484848485,0,0.576923076923077,0.423076923076923,0
3,35,"NSC",1,2,0,1,3,2,"Down",2575.18,16,35,29,42,1260,2,37,40,2,1,1,2,3,4,2,3,3,2,16,35,42,29,0,0.561521252796421,0.438478747203579,0,0.561521252796421,0.438478747203579,0,0.338833883388339,0.661166116611661,0
3,36,"NSC",0,3,1,3,2,0,"Up",2328,35,28,43,18,1288,3,13,30,3,1,1,2,3,4,1,4,4,2,18,35,43,28,0.49618320610687,0,0,0.50381679389313,0.49618320610687,0.50381679389313,0.540590405904059,0,0,0.459409594095941
3,37,"PSC",0,1,2,1,0,3,"Right",3747.43,47,25,19,27,1307,0,20,23,1,0,5,6,7,8,5,6,5,1,19,25,47,27,0.34882764294529,0.65117235705471,0,0,0.34882764294529,0.65117235705471,0.22851746931067,0.77148253068933,0,0
3,38,"NSC",0,1,3,2,0,1,"Down",3641.3,31,43,9,40,1347,1,13,37,1,1,1,2,3,4,1,2,2,2,9,40,43,31,0.485080336648814,0.276205049732211,0.238714613618975,0,0.485080336648814,0.276205049732211,0.607347876004592,0.392652123995408,0,0
3,39,"PSC",1,2,3,2,1,0,"Up",2081.6,28,46,20,20,1393,2,23,47,2,1,5,6,7,8,6,7,7,2,20,20,46,28,0,0.441603718768158,0.558396281231842,0,0.441603718768158,0.558396281231842,0,0.583835946924005,0.416164053075995,0
3,40,"PSC",0,1,3,2,1,0,"Right",4848.13,31,46,25,19,1418,1,20,23,1,1,5,6,7,8,5,6,6,2,19,25,46,31,0.544178794178794,0.455821205821206,0,0,0.544178794178794,0.455821205821206,0.455747711088505,0.544252288911495,0,0
3,41,"PSC",0,1,0,2,1,3,"Right",3332.73,22,45,23,31,1441,1,20,23,1,1,5,6,7,8,5,6,6,2,22,23,45,31,0.331205673758865,0.617730496453901,0.051063829787234,0,0.331205673758865,0.617730496453901,0.291375291375291,0.524475524475524,0.184149184149184,0
3,42,"PSC",1,2,1,3,0,2,"Down",1845.8,25,32,23,46,1487,2,23,47,2,1,5,6,7,8,6,7,7,2,23,25,46,32,0,0.356230031948882,0.643769968051118,0,0.356230031948882,0.643769968051118,0,0.764150943396226,0.235849056603774,0
3,43,"PSC",1,3,2,3,1,0,"Up",3230.42,47,30,23,22,1517,3,23,30,3,1,5,6,7,8,6,8,8,2,22,23,47,30,0.0836267605633803,0.42693661971831,0,0.48943661971831,0.42693661971831,0.48943661971831,0,0.445344129554656,0.190283400809717,0.364372469635628
3,44,"NSC",1,2,1,0,2,3,"Right",2251.54,40,10,39,33,1556,2,37,40,2,1,1,2,3,4,2,3,3,2,10,40,39,33,0,0.429721362229102,0.570278637770898,0,0.429721362229102,0.570278637770898,0.0598705501618123,0.686084142394822,0.254045307443366,0
3,45,"NSC",0,3,1,2,0,3,"Down",4173.25,37,39,14,30,1586,3,13,30,3,1,1,2,3,4,1,4,4,2,14,37,39,30,0.642175296499855,0.0653746022562916,0,0.292450101243853,0.642175296499855,0.292450101243853,0.508748317631225,0.203230148048452,0,0.288021534320323
3,46,"PSC",0,1,2,3,0,1,"Down",3728.56,46,32,21,24,1610,1,20,23,1,1,5,6,7,8,5,6,6,2,21,24,46,32,0.32621359223301,0.48284789644013,0,0.190938511326861,0.32621359223301,0.48284789644013,0.339622641509434,0.18722786647315,0.473149492017417,0
3,47,"PSC",0,2,0,3,2,1,"Right",2399.67,22,31,44,28,1654,2,20,47,2,1,5,6,7,8,5,7,7,2,22,28,44,31,0.249482401656315,0.0817805383022774,0.668737060041408,0,0.249482401656315,0.668737060041408,0.261096605744125,0.195822454308094,0.543080939947781,0
3,48,"NSC",2,3,1,2,0,3,"Up",1976.27,35,39,14,29,1693,2,40,30,2,1,1,2,3,4,3,4,3,1,14,35,39,29,0.13,0,0.625714285714286,0.244285714285714,0.625714285714286,0.244285714285714,0,0,0.500784929356358,0.499215070643642
3,49,"PSC",1,2,1,3,2,0,"Right",1622.61,25,33,44,24,1737,2,23,47,2,1,5,6,7,8,6,7,7,2,24,25,44,33,0,0.580753138075314,0.419246861924686,0,0.580753138075314,0.419246861924686,0,0.293388429752066,0.706611570247934,0
3,50,"NSC",0,1,0,3,1,2,"Right",1887.77,14,31,37,42,1774,1,13,37,1,1,1,2,3,4,1,2,2,2,14,37,42,31,0.522652659225213,0.477347340774787,0,0,0.522652659225213,0.477347340774787,0.298701298701299,0.701298701298701,0,0
3,51,"NSC",1,3,2,3,0,1,"Down",4054.83,40,31,15,37,1811,1,37,30,1,1,1,2,3,4,2,4,2,1,15,37,40,31,0.106928187282506,0.177159126858589,0.124644099968364,0.591268585890541,0.177159126858589,0.591268585890541,0.0213333333333333,0.298666666666667,0,0.68
3,52,"PSC",0,2,1,2,3,0,"Up",1588.96,25,48,31,17,1859,2,20,47,2,1,5,6,7,8,5,7,7,2,17,25,48,31,0.327304048234281,0.141257536606374,0.531438415159345,0,0.327304048234281,0.531438415159345,0.409420289855072,0,0.590579710144927,0
3,53,"PSC",0,2,1,0,3,2,"Down",1557.58,20,24,31,45,1904,2,20,47,2,1,5,6,7,8,5,7,7,2,24,20,45,31,0.581920903954802,0,0.254237288135593,0.163841807909605,0.581920903954802,0.254237288135593,0.490470139771283,0.133418043202033,0.376111817026684,0
3,54,"NSC",0,2,2,3,0,1,"Left",1498.15,40,31,12,37,1944,2,13,40,2,1,1,2,3,4,1,3,3,2,12,37,40,31,0.390702274975272,0,0.609297725024728,0,0.390702274975272,0.609297725024728,0.398659966499162,0.380234505862647,0.221105527638191,0
3,55,"PSC",1,3,0,1,2,3,"Down",2431.45,24,24,51,31,1975,3,23,30,3,1,5,6,7,8,6,8,8,2,24,24,51,31,0,0.467108618052014,0.115247322794493,0.417644059153493,0.467108618052014,0.417644059153493,0,0.458961474036851,0,0.541038525963149
3,56,"NSC",0,1,2,1,3,0,"Up",2210.24,38,34,31,16,2009,1,13,37,1,1,1,2,3,4,1,2,2,2,16,34,38,31,0.626048071548351,0.373951928451649,0,0,0.626048071548351,0.373951928451649,0.34585289514867,0.65414710485133,0,0
3,57,"PSC",2,3,1,3,2,0,"Right",1660.48,21,34,45,15,2054,2,47,30,2,1,5,6,7,8,7,8,7,1,15,21,45,34,0,0.126637554585153,0.412663755458515,0.460698689956332,0.412663755458515,0.460698689956332,0,0,0.639751552795031,0.360248447204969
3,58,"NSC",0,1,2,3,0,1,"Down",2351.85,42,27,13,34,2088,1,13,37,1,1,1,2,3,4,1,2,2,2,13,34,42,27,0.550108932461874,0.449891067538126,0,0,0.550108932461874,0.449891067538126,0,0.18705035971223,0.489208633093525,0.323741007194245
3,59,"NSC",1,2,2,1,3,0,"Left",1941.08,42,36,32,11,2130,2,37,40,2,1,1,2,3,4,2,3,3,2,11,36,42,32,0,0.644693473961767,0.355306526038233,0,0.644693473961767,0.355306526038233,0,0.666391412056152,0.333608587943848,0
3,60,"NSC",0,2,2,0,1,3,"Left",2147.59,41,15,36,29,2171,2,13,40,2,1,1,2,3,4,1,3,3,2,15,36,41,29,0.633763320246775,0,0.366236679753225,0,0.633763320246775,0.366236679753225,0.370919881305638,0,0.617210682492582,0.0118694362017804
4,1,"PSC",1,3,0,2,1,3,"Right",859.65,22,47,23,30,23,1,23,30,3,0,5,6,7,8,6,8,6,1,22,23,47,30,0,1,0,0,1,0,0.293023255813953,0.181395348837209,0.286046511627907,0.23953488372093
4,2,"NSC",0,3,1,0,2,3,"Down",1072.5,37,14,39,30,53,3,13,30,3,1,1,2,3,4,1,4,4,2,14,37,39,30,0.23781388478582,0,0.224519940915805,0.537666174298375,0.23781388478582,0.537666174298375,0.183953033268102,0.432485322896282,0.148727984344423,0.234833659491194
4,3,"NSC",1,3,1,2,0,3,"Left",1129.11,37,42,12,31,90,1,37,30,1,1,1,2,3,4,2,4,2,1,12,37,42,31,0,0.686648501362398,0,0.313351498637602,0.686648501362398,0.313351498637602,0.154776299879081,0.170898831116485,0.116888351471181,0.557436517533253
4,4,"NSC",1,3,3,0,2,1,"Left",1786.6,31,15,40,37,121,3,37,30,1,0,1,2,3,4,2,4,4,2,15,37,40,31,0,0.358738501971091,0,0.641261498028909,0.358738501971091,0.641261498028909,0.308192457737321,0.109232769830949,0.101430429128739,0.481144343302991
4,5,"PSC",0,2,3,1,2,0,"Right",1112.47,31,20,45,24,166,2,20,47,2,1,5,6,7,8,5,7,7,2,24,20,45,31,0.632183908045977,0,0.269592476489028,0.0982236154649948,0.632183908045977,0.269592476489028,0.177121771217712,0.154981549815498,0.394833948339483,0.273062730627306
4,6,"NSC",2,3,2,3,1,0,"Left",2097.75,39,34,38,15,205,2,40,30,2,1,1,2,3,4,3,4,3,1,15,38,39,34,0,0.125802310654686,0.428754813863928,0.445442875481386,0.428754813863928,0.445442875481386,0.12739965095986,0.293193717277487,0.198952879581152,0.380453752181501
4,7,"PSC",0,3,3,2,0,1,"Right",1352.21,29,47,21,24,226,0,20,30,3,0,5,6,7,8,5,8,5,1,21,24,47,29,0.506849315068493,0,0.189823874755382,0.303326810176125,0.506849315068493,0.303326810176125,0.142045454545455,0.147727272727273,0.299242424242424,0.410984848484849
4,8,"PSC",1,2,1,2,0,3,"Up",1159.99,22,48,22,31,274,2,23,47,2,1,5,6,7,8,6,7,7,2,22,22,48,31,0,0.316363636363636,0.683636363636364,0,0.316363636363636,0.683636363636364,0.153846153846154,0.269230769230769,0.192307692307692,0.384615384615385
4,9,"NSC",0,1,1,3,2,0,"Left",554.25,41,32,39,13,315,1,13,37,1,1,1,2,3,4,1,2,2,2,13,41,39,32,0,0.434343434343434,0,0.565656565656566,0,0.434343434343434,0.171875,0.176339285714286,0.185267857142857,0.466517857142857
4,10,"PSC",0,2,1,2,0,3,"Up",973.18,26,51,17,29,366,2,20,47,2,1,5,6,7,8,5,7,7,2,17,26,51,29,0.440453686200378,0,0.559546313799622,0,0.440453686200378,0.559546313799622,0.212014134275618,0.393992932862191,0.181978798586572,0.212014134275618
4,11,"NSC",2,3,3,1,2,0,"Right",1083.4,30,33,40,13,406,2,40,30,2,1,1,2,3,4,3,4,3,1,13,33,40,30,0.104913678618858,0.297476759628154,0.403718459495352,0.193891102257636,0.403718459495352,0.193891102257636,0.285714285714286,0.241269841269841,0.142857142857143,0.33015873015873
4,12,"PSC",1,3,0,2,1,3,"Right",1013.41,21,45,22,31,428,1,23,30,3,0,5,6,7,8,6,8,6,1,21,22,45,31,0,0.526315789473684,0,0.473684210526316,0.526315789473684,0.473684210526316,0.141048824593128,0.141048824593128,0.262206148282098,0.455696202531646
4,13,"PSC",1,2,0,1,3,2,"Up",1190.57,23,25,32,46,453,1,23,47,2,0,5,6,7,8,6,7,6,1,23,25,46,32,0,0.521367521367521,0.478632478632479,0,0.521367521367521,0.478632478632479,0.363517060367454,0.364829396325459,0.271653543307087,0
4,14,"NSC",0,2,2,0,1,3,"Left",1347.9,40,12,37,31,493,2,13,40,2,1,1,2,3,4,1,3,3,2,12,37,40,31,0.465499485066941,0,0.534500514933059,0,0.465499485066941,0.534500514933059,0.112756264236902,0.127562642369021,0.266514806378132,0.493166287015945
4,15,"NSC",0,3,3,0,1,2,"Up",1174.8,28,18,35,43,511,0,13,30,3,0,1,2,3,4,1,4,1,1,18,35,43,28,0.611883691529709,0,0,0.388116308470291,0.611883691529709,0.388116308470291,0.476401179941003,0,0.151917404129794,0.371681415929204
4,16,"NSC",1,3,3,0,1,2,"Left",1462.23,30,16,36,41,541,3,37,30,1,0,1,2,3,4,2,4,4,2,16,36,41,30,0.24777183600713,0.235294117647059,0,0.516934046345811,0.235294117647059,0.516934046345811,0,0.679525222551929,0,0.320474777448071
4,17,"NSC",2,3,1,2,3,0,"Right",1414.91,36,40,26,11,567,3,40,30,2,0,1,2,3,4,3,4,4,2,11,36,40,26,0,0.0798514391829155,0.423398328690808,0.496750232126277,0.423398328690808,0.496750232126277,0,0.189530685920578,0.402527075812274,0.407942238267148
4,18,"PSC",0,1,1,0,2,3,"Left",1283.32,25,19,46,31,592,1,20,23,1,1,5,6,7,8,5,6,6,2,19,25,46,31,0.383863080684597,0.425427872860636,0.190709046454768,0,0.383863080684597,0.425427872860636,0.342456140350877,0.344561403508772,0.137543859649123,0.175438596491228
4,19,"NSC",0,1,2,1,0,3,"Right",1362.8,42,34,13,27,605,0,13,37,1,0,1,2,3,4,1,2,1,1,13,34,42,27,0.453049370764763,0.507260406582769,0.0396902226524685,0,0.453049370764763,0.507260406582769,0.274963820549928,0.548480463096961,0.109985528219971,0.0665701881331404
4,20,"PSC",0,1,3,1,2,0,"Up",1264.62,32,24,46,21,629,1,20,23,1,1,5,6,7,8,5,6,6,2,21,24,46,32,0.240860215053763,0.632258064516129,0.126881720430108,0,0.240860215053763,0.632258064516129,0.452316076294278,0.253405994550409,0,0.294277929155313
4,21,"NSC",1,2,0,3,1,2,"Down",1586.07,10,33,40,39,668,2,37,40,2,1,1,2,3,4,2,3,3,2,10,40,39,33,0,0.547107438016529,0.352066115702479,0.100826446280992,0.547107438016529,0.352066115702479,0,0.585741811175337,0.377649325626204,0.0366088631984586
4,22,"NSC",1,3,2,3,0,1,"Up",1885.69,42,28,11,38,696,3,37,30,1,0,1,2,3,4,2,4,4,2,11,38,42,28,0,0.463268365817091,0,0.536731634182908,0.463268365817091,0.536731634182908,0,0.509838998211091,0,0.490161001788909
4,23,"PSC",0,1,2,3,1,0,"Right",1344.2,47,27,25,19,721,1,20,23,1,1,5,6,7,8,5,6,6,2,19,25,47,27,0.193018480492813,0.671457905544148,0,0.135523613963039,0.193018480492813,0.671457905544148,0.414953271028037,0.585046728971963,0,0
4,24,"PSC",1,3,2,0,1,3,"Right",1430.53,46,17,25,28,746,1,23,30,3,0,5,6,7,8,6,8,6,1,17,25,46,28,0.322330097087379,0.460194174757282,0,0.21747572815534,0.460194174757282,0.21747572815534,0,0.477049180327869,0,0.522950819672131
4,25,"PSC",1,2,0,1,3,2,"Down",1826.64,24,25,33,44,790,2,23,47,2,1,5,6,7,8,6,7,7,2,24,25,44,33,0.123163051084675,0.249125262421274,0.536738978306508,0.0909727081875437,0.249125262421274,0.536738978306508,0,0.478021978021978,0.423076923076923,0.0989010989010989
4,26,"PSC",2,3,3,1,0,2,"Down",1548.67,34,21,15,45,835,2,47,30,2,1,5,6,7,8,7,8,7,1,15,21,45,34,0,0,0.517810599478714,0.482189400521286,0.517810599478714,0.482189400521286,0,0.0626654898499559,0.473080317740512,0.464254192409532
4,27,"PSC",1,2,2,1,0,3,"Left",1615.41,46,26,23,29,881,2,23,47,2,1,5,6,7,8,6,7,7,2,23,26,46,29,0,0.447391688770999,0.418213969938108,0.134394341290893,0.447391688770999,0.418213969938108,0,0.479553903345725,0.520446096654275,0
4,28,"NSC",0,1,3,1,2,0,"Down",2130.44,31,40,43,9,890,0,13,37,1,0,1,2,3,4,1,2,1,1,9,40,43,31,0.366849482023157,0.549664838513102,0.0115783059110299,0.0719073735527118,0.366849482023157,0.549664838513102,0.764894298526586,0.235105701473414,0,0
4,29,"NSC",0,3,1,0,3,2,"Up",1489.39,42,10,29,37,900,0,13,30,3,0,1,2,3,4,1,4,1,1,10,42,37,29,0.393239901071723,0,0,0.606760098928277,0.393239901071723,0.606760098928277,0.5137278828554,0,0.418547895057962,0.0677242220866382
4,30,"NSC",2,3,1,3,0,2,"Up",1478.32,35,29,14,39,929,3,40,30,2,0,1,2,3,4,3,4,4,2,14,35,39,29,0,0,0.35264483627204,0.64735516372796,0.35264483627204,0.64735516372796,0.198941798941799,0.122751322751323,0.28042328042328,0.397883597883598
4,31,"PSC",0,3,1,0,3,2,"Up",1340.95,24,24,30,51,953,0,20,30,3,0,5,6,7,8,5,8,5,1,24,24,51,30,0.561840843720038,0.0939597315436242,0,0.344199424736337,0.561840843720038,0.344199424736337,0.587155963302752,0,0,0.412844036697248
4,32,"NSC",0,1,1,0,3,2,"Left",1570.67,37,14,31,42,990,1,13,37,1,1,1,2,3,4,1,2,2,2,14,37,42,31,0.503861003861004,0.496138996138996,0,0,0.503861003861004,0.496138996138996,0.325798908807482,0.467653936087295,0.123148869836321,0.083398285268901
4,33,"PSC",0,2,2,1,0,3,"Right",1642.53,48,25,17,31,1007,0,20,47,2,0,5,6,7,8,5,7,5,1,17,25,48,31,0.411023622047244,0.179527559055118,0.409448818897638,0,0.411023622047244,0.409448818897638,0.405731523378582,0,0.594268476621418,0
4,34,"NSC",0,2,3,2,0,1,"Right",1209.51,34,40,14,38,1021,0,13,40,2,0,1,2,3,4,1,3,1,1,14,38,40,34,0.48993288590604,0,0.366890380313199,0.143176733780761,0.48993288590604,0.366890380313199,0.541533546325879,0,0.458466453674121,0
4,35,"NSC",0,2,3,2,1,0,"Down",1311.47,31,40,38,16,1037,0,13,40,2,0,1,2,3,4,1,3,1,1,16,38,40,31,0.477045908183633,0,0.43313373253493,0.0898203592814371,0.477045908183633,0.43313373253493,0.375,0,0.625,0
4,36,"PSC",0,2,0,3,2,1,"Right",1430.89,21,34,46,27,1083,2,20,47,2,1,5,6,7,8,5,7,7,2,21,27,46,34,0.457753017641597,0,0.337975858867224,0.204271123491179,0.457753017641597,0.337975858867224,0.412424503882658,0.11130284728214,0.476272648835203,0
4,37,"PSC",2,3,0,1,3,2,"Right",1571.32,21,19,26,48,1109,3,47,30,2,0,5,6,7,8,7,8,8,2,21,19,48,26,0,0.0579345088161209,0.332493702770781,0.609571788413098,0.332493702770781,0.609571788413098,0,0.250175192711983,0.402242466713385,0.347582340574632
4,38,"PSC",0,3,3,0,2,1,"Up",1495.72,28,22,47,26,1131,0,20,30,3,0,5,6,7,8,5,8,5,1,22,26,47,28,0.447227191413238,0.123434704830054,0,0.429338103756708,0.447227191413238,0.429338103756708,0.454468085106383,0,0,0.545531914893617
4,39,"PSC",0,1,0,3,1,2,"Left",1336.31,22,31,23,45,1153,0,20,23,1,0,5,6,7,8,5,6,5,1,22,23,45,31,0.47609561752988,0.466135458167331,0,0.0577689243027888,0.47609561752988,0.466135458167331,0.4,0.324087591240876,0.12992700729927,0.145985401459854
4,40,"PSC",1,3,2,3,0,1,"Up",1636.66,50,29,20,22,1182,3,23,30,3,1,5,6,7,8,6,8,8,2,20,22,50,29,0,0.544666088464874,0,0.455333911535126,0.544666088464874,0.455333911535126,0,0.325581395348837,0.0901162790697674,0.584302325581395
4,41,"NSC",0,1,2,0,1,3,"Right",1839.23,38,16,34,31,1216,1,13,37,1,1,1,2,3,4,1,2,2,2,16,34,38,31,0.545,0.455,0,0,0.545,0.455,0.306188925081433,0.693811074918567,0,0
4,42,"PSC",2,3,1,0,2,3,"Right",1593.1,21,21,50,29,1266,2,47,30,2,1,5,6,7,8,7,8,7,1,21,21,50,29,0.110835401157982,0.0694789081885856,0.4383788254756,0.381306865177833,0.4383788254756,0.381306865177833,0,0,0.762172284644195,0.237827715355805
4,43,"NSC",0,3,3,2,0,1,"Left",1634.21,32,37,11,37,1298,3,13,30,3,1,1,2,3,4,1,4,4,2,11,37,37,32,0.492088607594937,0,0,0.507911392405063,0.492088607594937,0.507911392405063,0.179396092362345,0,0.0674955595026643,0.753108348134991
4,44,"NSC",1,2,1,2,3,0,"Left",2072.11,36,39,28,11,1334,1,37,40,2,0,1,2,3,4,2,3,2,1,11,36,39,28,0,0.659420289855073,0.340579710144928,0,0.659420289855073,0.340579710144928,0,0.351328191945159,0.519280205655527,0.129391602399314
4,45,"PSC",0,2,0,3,2,1,"Left",1337.27,22,31,44,28,1356,0,20,47,2,0,5,6,7,8,5,7,5,1,22,28,44,31,0.405128205128205,0,0.484102564102564,0.110769230769231,0.405128205128205,0.484102564102564,0.515151515151515,0,0.484848484848485,0
4,46,"PSC",2,3,0,2,3,1,"Up",1167.82,15,47,30,25,1403,2,47,30,2,1,5,6,7,8,7,8,7,1,15,25,47,30,0,0,0.47953216374269,0.52046783625731,0.47953216374269,0.52046783625731,0.170254403131115,0,0.559686888454012,0.270058708414873
4,47,"NSC",0,2,0,3,2,1,"Left",1330.19,15,29,41,36,1418,0,13,40,2,0,1,2,3,4,1,3,1,1,15,36,41,29,0.581622678396872,0,0.301075268817204,0.117302052785924,0.581622678396872,0.301075268817204,0.621107266435986,0.0899653979238754,0.288927335640138,0
4,48,"NSC",0,2,0,2,3,1,"Up",2091.66,11,41,31,36,1459,2,13,40,2,1,1,2,3,4,1,3,3,2,11,36,41,31,0.458026509572901,0,0.394698085419735,0.147275405007364,0.458026509572901,0.394698085419735,0.392139737991266,0,0.607860262008734,0
4,49,"PSC",1,2,0,3,1,2,"Right",2002.15,20,28,20,46,1479,1,23,47,2,0,5,6,7,8,6,7,6,1,20,20,46,28,0,0.53946587537092,0.384569732937685,0.0759643916913947,0.53946587537092,0.384569732937685,0,0.331691297208539,0.444991789819376,0.223316912972085
4,50,"NSC",0,3,0,1,3,2,"Right",1823.02,9,37,29,40,1508,3,13,30,3,1,1,2,3,4,1,4,4,2,9,37,40,29,0.477951635846373,0.0896159317211949,0,0.432432432432432,0.477951635846373,0.432432432432432,0.777089783281734,0,0,0.222910216718266
4,51,"PSC",0,3,2,3,1,0,"Up",1454.61,46,29,24,24,1537,3,20,30,3,1,5,6,7,8,5,8,8,2,24,24,46,29,0.260147601476015,0.136531365313653,0,0.603321033210332,0.260147601476015,0.603321033210332,0.192429022082019,0.272870662460568,0.201892744479495,0.332807570977918
4,52,"NSC",1,2,1,0,3,2,"Left",1761.56,38,15,31,41,1575,1,37,40,2,0,1,2,3,4,2,3,2,1,15,38,41,31,0.0413793103448276,0.555555555555556,0.403065134099617,0,0.555555555555556,0.403065134099617,0,0.713498622589532,0.286501377410468,0
4,53,"PSC",1,3,3,1,2,0,"Left",1324.53,31,24,51,24,1606,3,23,30,3,1,5,6,7,8,6,8,8,2,24,24,51,31,0,0.495145631067961,0,0.504854368932039,0.495145631067961,0.504854368932039,0.225190839694656,0.345419847328244,0.0190839694656489,0.41030534351145
4,54,"NSC",1,2,0,1,3,2,"Up",1652.75,16,35,29,42,1641,1,37,40,2,0,1,2,3,4,2,3,2,1,16,35,42,29,0.116104868913858,0.49625468164794,0.387640449438202,0,0.49625468164794,0.387640449438202,0,0.774988377498838,0.225011622501162,0
4,55,"PSC",0,1,3,2,0,1,"Right",1237.17,31,48,18,21,1659,0,20,23,1,0,5,6,7,8,5,6,5,1,18,21,48,31,0.557184750733138,0.442815249266862,0,0,0.557184750733138,0.442815249266862,0.230409356725146,0.425730994152047,0.160233918128655,0.183625730994152
4,56,"NSC",1,3,2,3,0,1,"Up",1160.63,40,29,12,37,1688,3,37,30,1,0,1,2,3,4,2,4,4,2,12,37,40,29,0,0.362924281984334,0.206266318537859,0.430809399477807,0.362924281984334,0.430809399477807,0,0.774671052631579,0.0476973684210526,0.177631578947368
4,57,"PSC",0,3,3,2,0,1,"Left",1300.01,32,45,19,24,1720,3,20,30,3,1,5,6,7,8,5,8,8,2,19,24,45,32,0.342915811088296,0,0,0.657084188911704,0.342915811088296,0.657084188911704,0.273010920436817,0,0,0.726989079563182
4,58,"PSC",2,3,2,3,1,0,"Left",1823.27,50,27,28,21,1770,2,47,30,2,1,5,6,7,8,7,8,7,1,21,28,50,27,0,0,0.606789250353607,0.393210749646393,0.606789250353607,0.393210749646393,0,0,0.722100656455142,0.277899343544858
4,59,"NSC",2,3,0,1,2,3,"Right",1769.49,10,39,42,27,1812,2,40,30,2,1,1,2,3,4,3,4,3,1,10,39,42,27,0.0794223826714801,0,0.389891696750903,0.530685920577617,0.389891696750903,0.530685920577617,0.0827067669172932,0.243107769423559,0.218045112781955,0.456140350877193
4,60,"NSC",1,2,0,3,1,2,"Right",1482.63,11,32,36,42,1848,1,37,40,2,0,1,2,3,4,2,3,2,1,11,36,42,32,0.106984969053935,0.620689655172414,0.272325375773652,0,0.620689655172414,0.272325375773652,0,0.492931196983977,0.507068803016023,0
5,1,"PSC",2,3,2,3,0,1,"Left",1473.76,48,26,21,19,48,2,47,30,2,1,5,6,7,8,7,8,7,1,21,19,48,26,0,0,0.783582089552239,0.216417910447761,0.783582089552239,0.216417910447761,0,0.212334113973458,0.75487900078064,0.0327868852459016
5,2,"PSC",2,3,2,1,3,0,"Right",2592.67,47,25,30,15,78,3,47,30,2,0,5,6,7,8,7,8,8,2,15,25,47,30,0,0,0.562858966177409,0.437141033822591,0.562858966177409,0.437141033822591,0.111338518215309,0.0916905444126074,0.685223086369218,0.111747851002865
5,3,"PSC",0,2,1,2,0,3,"Up",1719.45,20,45,24,31,123,2,20,47,2,1,5,6,7,8,5,7,7,2,24,20,45,31,0.27319587628866,0.235395189003436,0.491408934707904,0,0.27319587628866,0.491408934707904,0.226890756302521,0,0.237394957983193,0.535714285714286
5,4,"NSC",1,3,2,3,1,0,"Right",2177.51,42,28,38,11,161,1,37,30,1,1,1,2,3,4,2,4,2,1,11,38,42,28,0,0.56020942408377,0,0.43979057591623,0.56020942408377,0.43979057591623,0.101234567901235,0.555555555555556,0,0.34320987654321
5,5,"NSC",2,3,2,3,1,0,"Left",2990.4,40,30,33,13,201,2,40,30,2,1,1,2,3,4,3,4,3,1,13,33,40,30,0,0,0.353741496598639,0.646258503401361,0.353741496598639,0.646258503401361,0,0,0.0615655233069481,0.938434476693052
5,6,"NSC",0,2,0,1,2,3,"Right",1768.43,16,38,40,31,241,2,13,40,2,1,1,2,3,4,1,3,3,2,16,38,40,31,0.584856396866841,0,0.415143603133159,0,0.584856396866841,0.415143603133159,0.612691466083151,0.172866520787746,0.214442013129103,0
5,7,"NSC",1,3,1,2,3,0,"Left",2515.37,37,42,31,12,278,1,37,30,1,1,1,2,3,4,2,4,2,1,12,37,42,31,0,0.393767705382436,0,0.606232294617564,0.393767705382436,0.606232294617564,0,0.605898123324397,0,0.394101876675603
5,8,"NSC",1,2,3,1,0,2,"Down",5232.74,33,40,10,39,317,2,37,40,2,1,1,2,3,4,2,3,3,2,10,40,39,33,0,0.447253705318221,0.47951176983435,0.0732345248474281,0.447253705318221,0.47951176983435,0,0.170818505338078,0.829181494661922,0
5,9,"NSC",0,2,3,0,2,1,"Right",2008.6,29,15,41,36,358,2,13,40,2,1,1,2,3,4,1,3,3,2,15,36,41,29,0.489655172413793,0.108620689655172,0.401724137931034,0,0.489655172413793,0.401724137931034,0.331588132635253,0.525305410122164,0.143106457242583,0
5,10,"PSC",1,2,3,1,2,0,"Right",3616.91,31,22,48,22,406,2,23,47,2,1,5,6,7,8,6,7,7,2,22,22,48,31,0,0.44879786286732,0.55120213713268,0,0.44879786286732,0.55120213713268,0,1,0,0
5,11,"PSC",2,3,0,2,3,1,"Up",1680.55,15,45,34,21,451,2,47,30,2,1,5,6,7,8,7,8,7,1,15,21,45,34,0,0,0.29986962190352,0.70013037809648,0.29986962190352,0.70013037809648,0,0,0.267543859649123,0.732456140350877
5,12,"PSC",0,1,2,0,3,1,"Down",2133.82,48,18,31,21,472,1,20,23,1,1,5,6,7,8,5,6,6,2,18,21,48,31,0.265137029955386,0.734862970044615,0,0,0.265137029955386,0.734862970044615,0.735849056603774,0.264150943396226,0,0
5,13,"NSC",2,3,3,2,0,1,"Up",1392.32,34,39,15,38,511,2,40,30,2,1,1,2,3,4,3,4,3,1,15,38,39,34,0,0,0.591187270501836,0.408812729498164,0.591187270501836,0.408812729498164,0.288683602771363,0.212471131639723,0.175519630484988,0.323325635103926
5,14,"PSC",0,1,1,0,2,3,"Left",1538.41,24,21,46,32,535,1,20,23,1,1,5,6,7,8,5,6,6,2,21,24,46,32,0.663985701519214,0.336014298480786,0,0,0.663985701519214,0.336014298480786,0.295918367346939,0.177551020408163,0.526530612244898,0
5,15,"PSC",0,3,2,1,0,3,"Right",3164.21,47,26,22,28,557,0,20,30,3,0,5,6,7,8,5,8,5,1,22,26,47,28,0.448349307774228,0.0553780617678381,0,0.496272630457934,0.448349307774228,0.496272630457934,0.708971553610503,0,0,0.291028446389497
5,16,"NSC",2,3,3,2,0,1,"Up",1851.89,26,40,11,36,597,2,40,30,2,1,1,2,3,4,3,4,3,1,11,36,40,26,0,0,0.642292490118577,0.357707509881423,0.642292490118577,0.357707509881423,0,0.633004926108374,0.142857142857143,0.224137931034483
5,17,"NSC",1,2,3,0,2,1,"Right",2236.12,32,11,42,36,639,2,37,40,2,1,1,2,3,4,2,3,3,2,11,36,42,32,0.105947955390335,0.180297397769517,0.713754646840149,0,0.180297397769517,0.713754646840149,0,0.656976744186046,0.343023255813953,0
5,18,"PSC",0,1,2,3,1,0,"Right",2055.13,45,31,23,22,662,1,20,23,1,1,5,6,7,8,5,6,6,2,22,23,45,31,0.376106194690266,0.466814159292035,0,0.157079646017699,0.376106194690266,0.466814159292035,0.258620689655172,0.741379310344828,0,0
5,19,"PSC",1,3,1,2,3,0,"Left",2342.28,25,46,28,17,687,1,23,30,3,0,5,6,7,8,6,8,6,1,17,25,46,28,0,0.497120921305182,0,0.502879078694818,0.497120921305182,0.502879078694818,0,0.542553191489362,0,0.457446808510638
5,20,"PSC",0,2,1,3,0,2,"Down",3272.66,27,34,21,46,733,2,20,47,2,1,5,6,7,8,5,7,7,2,21,27,46,34,0.519438444924406,0,0.480561555075594,0,0.519438444924406,0.480561555075594,0.708502024291498,0,0.291497975708502,0
5,21,"NSC",1,3,0,3,1,2,"Right",4348.21,16,30,36,41,769,1,37,30,1,1,1,2,3,4,2,4,2,1,16,36,41,30,0,0.64240790655885,0.0997304582210243,0.257861635220126,0.64240790655885,0.257861635220126,0,0.551948051948052,0,0.448051948051948
5,22,"PSC",0,3,3,1,2,0,"Left",2784.21,29,24,46,24,798,3,20,30,3,1,5,6,7,8,5,8,8,2,24,24,46,29,0.457239057239057,0.0902356902356902,0.0808080808080808,0.371717171717172,0.457239057239057,0.371717171717172,0.282786885245902,0,0,0.717213114754098
5,23,"PSC",2,3,2,1,0,3,"Left",3972.86,50,21,21,29,848,2,47,30,2,1,5,6,7,8,7,8,7,1,21,21,50,29,0.0418809698750918,0.0455547391623806,0.556943423952976,0.355620867009552,0.556943423952976,0.355620867009552,0,0,0,1
5,24,"PSC",0,3,1,2,3,0,"Right",2329.86,24,47,29,21,877,3,20,30,3,1,5,6,7,8,5,8,8,2,21,24,47,29,0.586206896551724,0.130094043887147,0,0.283699059561129,0.586206896551724,0.283699059561129,0.4921875,0,0,0.5078125
5,25,"NSC",0,2,1,3,2,0,"Right",1694.57,37,31,40,12,917,2,13,40,2,1,1,2,3,4,1,3,3,2,12,37,40,31,0.237980769230769,0,0.762019230769231,0,0.237980769230769,0.762019230769231,0,0,0,0
5,26,"NSC",0,1,1,0,3,2,"Left",2374.22,40,9,31,43,957,1,13,37,1,1,1,2,3,4,1,2,2,2,9,40,43,31,0.237647058823529,0.467058823529412,0.197647058823529,0.0976470588235294,0.237647058823529,0.467058823529412,0.807511737089202,0.192488262910798,0,0
5,27,"PSC",0,3,0,2,1,3,"Down",2616.83,19,45,24,32,989,3,20,30,3,1,5,6,7,8,5,8,8,2,19,24,45,32,0.703759398496241,0,0,0.296240601503759,0.703759398496241,0.296240601503759,0.61878453038674,0,0,0.38121546961326
5,28,"PSC",1,3,3,0,2,1,"Down",3136.66,29,20,50,22,1011,1,23,30,3,0,5,6,7,8,6,8,6,1,20,22,50,29,0.129032258064516,0.283602150537634,0.0833333333333333,0.504032258064516,0.283602150537634,0.504032258064516,0,0.245551601423488,0,0.754448398576512
5,29,"PSC",0,2,0,3,2,1,"Left",3290.74,17,29,51,26,1028,0,20,47,2,0,5,6,7,8,5,7,5,1,17,26,51,29,0.352941176470588,0.130434782608696,0.516624040920716,0,0.352941176470588,0.516624040920716,0,0,1,0
5,30,"PSC",0,2,1,2,0,3,"Right",6026.72,28,44,22,31,1050,0,20,47,2,0,5,6,7,8,5,7,5,1,22,28,44,31,0.506003430531732,0,0.433104631217839,0.0608919382504288,0.506003430531732,0.433104631217839,1,0,0,0
5,31,"PSC",1,2,2,0,1,3,"Right",1883.76,44,24,25,33,1075,1,23,47,2,0,5,6,7,8,6,7,6,1,24,25,44,33,0.125122189638319,0.359726295210166,0.515151515151515,0,0.359726295210166,0.515151515151515,0,0.349680170575693,0.650319829424307,0
5,32,"NSC",0,3,0,1,2,3,"Down",5599.34,10,42,37,29,1104,3,13,30,3,1,1,2,3,4,1,4,4,2,10,42,37,29,0.312562313060818,0.109172482552343,0.177467597208375,0.400797607178465,0.312562313060818,0.400797607178465,0.309375,0.228125,0.2375,0.225
5,33,"PSC",1,3,3,0,2,1,"Left",3830.81,31,24,51,24,1135,3,23,30,3,1,5,6,7,8,6,8,8,2,24,24,51,31,0,0.491103202846975,0,0.508896797153025,0.491103202846975,0.508896797153025,0,0.298319327731092,0,0.701680672268908
5,34,"PSC",1,2,3,1,2,0,"Right",3940.2,29,26,46,23,1181,2,23,47,2,1,5,6,7,8,6,7,7,2,23,26,46,29,0.0638409209837781,0.209314495028781,0.726844583987441,0,0.209314495028781,0.726844583987441,0,0.565737051792829,0.434262948207171,0
5,35,"NSC",0,2,3,1,2,0,"Right",2151.91,31,36,41,11,1222,2,13,40,2,1,1,2,3,4,1,3,3,2,11,36,41,31,0.302779864763336,0,0.697220135236664,0,0.302779864763336,0.697220135236664,0,0,1,0
5,36,"PSC",1,2,1,3,2,0,"Right",2104.33,20,28,46,20,1268,2,23,47,2,1,5,6,7,8,6,7,7,2,20,20,46,28,0,0.372357723577236,0.627642276422764,0,0.372357723577236,0.627642276422764,0,0,0,0
5,37,"NSC",0,1,0,2,3,1,"Down",3276.43,16,38,31,34,1302,1,13,37,1,1,1,2,3,4,1,2,2,2,16,34,38,31,0.274798927613941,0.509383378016086,0,0.215817694369973,0.274798927613941,0.509383378016086,0.262889879057925,0.290260980267346,0.188415022278803,0.258434118395926
5,38,"NSC",0,1,2,0,1,3,"Right",3292.87,39,13,41,32,1343,1,13,37,1,1,1,2,3,4,1,2,2,2,13,41,39,32,0.354301572617946,0.57354301572618,0.0721554116558742,0,0.354301572617946,0.57354301572618,0,0.539130434782609,0.460869565217391,0
5,39,"PSC",2,3,0,2,3,1,"Up",1912.44,21,50,27,28,1393,2,47,30,2,1,5,6,7,8,7,8,7,1,21,28,50,27,0,0,0.451704545454545,0.548295454545455,0.451704545454545,0.548295454545455,0,0,0,1
5,40,"NSC",0,3,0,2,3,1,"Right",1857.36,11,37,32,37,1425,3,13,30,3,1,1,2,3,4,1,4,4,2,11,37,37,32,0.51993620414673,0,0,0.48006379585327,0.51993620414673,0.48006379585327,0,0,0,1
5,41,"PSC",0,1,0,1,3,2,"Up",2560.16,19,25,27,47,1450,1,20,23,1,1,5,6,7,8,5,6,6,2,19,25,47,27,0.503534529635672,0.409461663947798,0,0.0870038064165307,0.503534529635672,0.409461663947798,0.223057644110276,0.365914786967419,0.195488721804511,0.215538847117794
5,42,"PSC",0,3,3,2,0,1,"Left",3366.95,30,51,24,24,1480,3,20,30,3,1,5,6,7,8,5,8,8,2,24,24,51,30,0.418935902806871,0,0.147465437788018,0.433598659405111,0.418935902806871,0.433598659405111,0.769028871391076,0.230971128608924,0,0
5,43,"NSC",0,1,3,0,2,1,"Down",2127.44,31,14,42,37,1517,1,13,37,1,1,1,2,3,4,1,2,2,2,14,37,42,31,0.445804195804196,0.398601398601399,0,0.155594405594406,0.445804195804196,0.398601398601399,0,0.55011655011655,0.44988344988345,0
5,44,"NSC",1,2,0,1,3,2,"Up",6107.44,11,36,28,39,1553,1,37,40,2,0,1,2,3,4,2,3,2,1,11,36,39,28,0.0227858985382631,0.466895958727429,0.459587274290628,0.0507308684436801,0.466895958727429,0.459587274290628,0,0.522954091816367,0.477045908183633,0
5,45,"NSC",1,2,3,1,0,2,"Down",2796.2,31,38,15,41,1594,2,37,40,2,1,1,2,3,4,2,3,3,2,15,38,41,31,0,0.121212121212121,0.878787878787879,0,0.121212121212121,0.878787878787879,0,0,1,0
5,46,"NSC",0,3,0,3,1,2,"Up",1970.75,9,29,37,40,1623,3,13,30,3,1,1,2,3,4,1,4,4,2,9,37,40,29,0.320373250388802,0,0.107309486780715,0.572317262830482,0.320373250388802,0.572317262830482,0,0,0.34156378600823,0.65843621399177
5,47,"NSC",0,3,1,0,2,3,"Down",2183.32,35,18,43,28,1651,3,13,30,3,1,1,2,3,4,1,4,4,2,18,35,43,28,0.472,0,0,0.528,0.472,0.528,0,0,0,0
5,48,"PSC",1,2,3,0,2,1,"Right",1849.8,32,23,46,25,1697,2,23,47,2,1,5,6,7,8,6,7,7,2,23,25,46,32,0,0.425357873210634,0.574642126789366,0,0.425357873210634,0.574642126789366,0,0,1,0
5,49,"NSC",1,3,1,0,2,3,"Left",3018.53,37,15,40,31,1734,1,37,30,1,1,1,2,3,4,2,4,2,1,15,37,40,31,0,0.667313288069835,0,0.332686711930165,0.667313288069835,0.332686711930165,0,0.420454545454545,0,0.579545454545455
5,50,"NSC",2,3,3,2,1,0,"Up",3453.27,29,39,35,14,1773,2,40,30,2,1,1,2,3,4,3,4,3,1,14,35,39,29,0.101639344262295,0,0.508196721311475,0.39016393442623,0.508196721311475,0.39016393442623,0,0,0.494318181818182,0.505681818181818
5,51,"PSC",0,1,2,1,3,0,"Up",3351.44,46,25,31,19,1798,1,20,23,1,1,5,6,7,8,5,6,6,2,19,25,46,31,0.423295454545455,0.370265151515152,0.0804924242424242,0.12594696969697,0.423295454545455,0.370265151515152,0,1,0,0
5,52,"NSC",1,3,3,2,0,1,"Down",3348.92,29,40,12,37,1835,1,37,30,1,1,1,2,3,4,2,4,2,1,12,37,40,29,0,0.548039215686275,0.0705882352941176,0.381372549019608,0.548039215686275,0.381372549019608,0,0.331707317073171,0.282926829268293,0.385365853658537
5,53,"NSC",2,3,3,1,0,2,"Down",2643.79,27,39,10,42,1877,2,40,30,2,1,1,2,3,4,3,4,3,1,10,39,42,27,0,0,0.519138755980861,0.480861244019139,0.519138755980861,0.480861244019139,0,0,0,0
5,54,"NSC",0,3,2,3,0,1,"Up",2184.49,39,30,14,37,1907,3,13,30,3,1,1,2,3,4,1,4,4,2,14,37,39,30,0.461699895068206,0,0,0.538300104931794,0.461699895068206,0.538300104931794,0.607843137254902,0,0,0.392156862745098
5,55,"PSC",0,2,0,1,3,2,"Down",1373.39,17,25,31,48,1955,2,20,47,2,1,5,6,7,8,5,7,7,2,17,25,48,31,0.345588235294118,0,0.654411764705882,0,0.345588235294118,0.654411764705882,0,0.657276995305164,0.342723004694836,0
5,56,"PSC",1,3,2,3,0,1,"Down",1377.58,45,31,21,22,1977,1,23,30,3,0,5,6,7,8,6,8,6,1,21,22,45,31,0,0.497981157469717,0.174966352624495,0.327052489905787,0.497981157469717,0.327052489905787,0,0.368636629607958,0,0.631363370392042
5,57,"NSC",1,2,2,3,1,0,"Left",2114.67,42,29,35,16,2019,2,37,40,2,1,1,2,3,4,2,3,3,2,16,35,42,29,0,0.422900763358779,0.450381679389313,0.126717557251908,0.422900763358779,0.450381679389313,0.292035398230089,0.460176991150442,0.247787610619469,0
5,58,"NSC",0,1,1,3,0,2,"Left",1534.26,34,27,13,42,2053,1,13,37,1,1,1,2,3,4,1,2,2,2,13,34,42,27,0.375,0.625,0,0,0.375,0.625,0,0,0,0
5,59,"NSC",0,2,1,0,3,2,"Down",1982.95,38,14,34,40,2093,2,13,40,2,1,1,2,3,4,1,3,3,2,14,38,40,34,0.295302013422819,0.178970917225951,0.52572706935123,0,0.295302013422819,0.52572706935123,0,0,1,0
5,60,"PSC",1,3,2,0,1,3,"Down",4430.7,47,22,23,30,2123,3,23,30,3,1,5,6,7,8,6,8,8,2,22,23,47,30,0,0.55198973042362,0,0.44801026957638,0.55198973042362,0.44801026957638,0,0.569230769230769,0,0.430769230769231
6,1,"PSC",0,2,0,1,3,2,"Down",2198.47,21,27,34,46,46,2,20,47,2,1,5,6,7,8,5,7,7,2,21,27,46,34,0.289672544080605,0,0.710327455919396,0,0.289672544080605,0.710327455919396,0.528366370471634,0.0898838004101162,0.38174982911825,0
6,2,"PSC",0,1,1,0,2,3,"Left",1670.03,25,19,47,27,71,1,20,23,1,1,5,6,7,8,5,6,6,2,19,25,47,27,0.217937971500419,0.456831517183571,0.202849958088852,0.122380553227158,0.217937971500419,0.456831517183571,0.598901098901099,0.401098901098901,0,0
6,3,"NSC",0,1,0,1,3,2,"Up",2079.95,13,34,27,42,105,1,13,37,1,1,1,2,3,4,1,2,2,2,13,34,42,27,0.24,0.661935483870968,0,0.0980645161290323,0.24,0.661935483870968,0.479227053140097,0.520772946859903,0,0
6,4,"NSC",2,3,1,3,0,2,"Up",1826.1,39,27,10,42,132,3,40,30,2,0,1,2,3,4,3,4,4,2,10,39,42,27,0,0.0917573872472784,0.377916018662519,0.530326594090202,0.377916018662519,0.530326594090202,0,0,0.546153846153846,0.453846153846154
6,5,"PSC",2,3,2,0,3,1,"Left",1929.29,50,21,27,28,182,2,47,30,2,1,5,6,7,8,7,8,7,1,21,28,50,27,0,0.134670487106017,0.560171919770774,0.305157593123209,0.560171919770774,0.305157593123209,0,0,0.859416445623342,0.140583554376658
6,6,"NSC",0,1,2,3,1,0,"Right",1355.48,39,32,41,13,223,1,13,37,1,1,1,2,3,4,1,2,2,2,13,41,39,32,0.272532188841202,0.727467811158798,0,0,0.272532188841202,0.727467811158798,0.481481481481481,0.518518518518518,0,0
6,7,"PSC",1,3,3,0,2,1,"Down",1814.81,28,17,46,25,248,1,23,30,3,0,5,6,7,8,6,8,6,1,17,25,46,28,0,0.447124304267161,0,0.552875695732839,0.447124304267161,0.552875695732839,0,0.421559191530318,0.306063522617902,0.272377285851781
6,8,"NSC",1,2,1,3,2,0,"Left",1451.1,35,29,42,16,283,1,37,40,2,0,1,2,3,4,2,3,2,1,16,35,42,29,0.133182844243792,0.641083521444695,0.225733634311512,0,0.641083521444695,0.225733634311512,0,0.609613130128957,0.390386869871043,0
6,9,"PSC",2,3,3,1,0,2,"Down",1183.46,34,21,15,45,328,2,47,30,2,1,5,6,7,8,7,8,7,1,15,21,45,34,0,0,0.745664739884393,0.254335260115607,0.745664739884393,0.254335260115607,0,0,0.220794392523364,0.779205607476635
6,10,"PSC",0,1,1,3,0,2,"Right",1991.75,24,32,21,46,349,0,20,23,1,0,5,6,7,8,5,6,5,1,21,24,46,32,0.540516473731077,0.459483526268923,0,0,0.540516473731077,0.459483526268923,0.594594594594595,0.405405405405405,0,0
6,11,"NSC",1,3,1,3,2,0,"Left",1893.88,37,31,40,15,386,1,37,30,1,1,1,2,3,4,2,4,2,1,15,37,40,31,0.179063360881543,0.520661157024793,0.0881542699724518,0.212121212121212,0.520661157024793,0.212121212121212,0,0.801382778126964,0,0.198617221873036
6,12,"NSC",2,3,0,3,2,1,"Up",1834.17,11,26,40,36,412,3,40,30,2,0,1,2,3,4,3,4,4,2,11,36,40,26,0.0998185117967332,0,0.217785843920145,0.682395644283122,0.217785843920145,0.682395644283122,0.238461538461538,0,0,0.761538461538461
6,13,"PSC",2,3,0,1,3,2,"Down",1553.4,15,25,30,47,459,2,47,30,2,1,5,6,7,8,7,8,7,1,15,25,47,30,0,0,0.752679307502061,0.247320692497939,0.752679307502061,0.247320692497939,0,0,0,0
6,14,"NSC",1,2,0,3,2,1,"Down",1732.2,15,31,41,38,497,1,37,40,2,0,1,2,3,4,2,3,2,1,15,38,41,31,0,0.627339300244101,0.372660699755899,0,0.627339300244101,0.372660699755899,0.188118811881188,0.234323432343234,0.31023102310231,0.267326732673267
6,15,"PSC",0,2,2,0,1,3,"Left",1670.82,51,17,26,29,548,2,20,47,2,1,5,6,7,8,5,7,7,2,17,26,51,29,0.309859154929577,0.14486921529175,0.545271629778672,0,0.309859154929577,0.545271629778672,0.809890815671163,0,0.092485549132948,0.0976236351958895
6,16,"PSC",1,3,3,1,0,2,"Up",1560.32,31,22,21,45,570,1,23,30,3,0,5,6,7,8,6,8,6,1,21,22,45,31,0,0.654082528533802,0,0.345917471466198,0.654082528533802,0.345917471466198,0,0.711060948081264,0,0.288939051918736
6,17,"PSC",0,2,1,0,2,3,"Right",1786.82,25,17,48,31,618,2,20,47,2,1,5,6,7,8,5,7,7,2,17,25,48,31,0.362825278810409,0.0951672862453532,0.542007434944238,0,0.362825278810409,0.542007434944238,0.713629402756508,0,0.286370597243492,0
6,18,"PSC",0,1,0,3,2,1,"Left",2195.99,22,31,45,23,640,0,20,23,1,0,5,6,7,8,5,6,5,1,22,23,45,31,0.545945945945946,0.454054054054054,0,0,0.545945945945946,0.454054054054054,0.191282268303005,0.366483283961066,0.390605162928481,0.0516292848074482
6,19,"NSC",1,3,0,1,3,2,"Up",1624.02,16,36,30,41,676,1,37,30,1,1,1,2,3,4,2,4,2,1,16,36,41,30,0,0.697416974169742,0,0.302583025830258,0.697416974169742,0.302583025830258,0,0.158203125,0,0.841796875
6,20,"PSC",0,1,0,1,2,3,"Left",2131.69,19,25,46,31,695,0,20,23,1,0,5,6,7,8,5,6,5,1,19,25,46,31,0.476825396825397,0.523174603174603,0,0,0.476825396825397,0.523174603174603,0.313455657492355,0.356269113149847,0.142201834862385,0.188073394495413
6,21,"PSC",0,1,2,3,0,1,"Right",1891.08,48,31,18,21,713,0,20,23,1,0,5,6,7,8,5,6,5,1,18,21,48,31,0.667365478686233,0.332634521313767,0,0,0.667365478686233,0.332634521313767,0.391304347826087,0.151552795031056,0.457142857142857,0
6,22,"PSC",0,3,0,3,2,1,"Left",1822.85,21,29,47,24,734,0,20,30,3,0,5,6,7,8,5,8,5,1,21,24,47,29,0.606274509803922,0.172549019607843,0,0.221176470588235,0.606274509803922,0.221176470588235,0.411102172164119,0.136765888978278,0.209171359613837,0.242960579243765
6,23,"NSC",0,2,0,3,1,2,"Down",2297.03,12,31,37,40,774,2,13,40,2,1,1,2,3,4,1,3,3,2,12,37,40,31,0.266813671444322,0,0.557883131201764,0.175303197353914,0.266813671444322,0.557883131201764,0.241586538461538,0,0.292067307692308,0.466346153846154
6,24,"NSC",2,3,1,2,0,3,"Up",1606.86,35,39,14,29,813,2,40,30,2,1,1,2,3,4,3,4,3,1,14,35,39,29,0,0,0.610837438423645,0.389162561576355,0.610837438423645,0.389162561576355,0,0.162675474814203,0.561519405450041,0.275805119735756
6,25,"NSC",0,1,0,1,3,2,"Left",1867.4,14,37,31,42,827,0,13,37,1,0,1,2,3,4,1,2,1,1,14,37,42,31,0.66190833959429,0.33809166040571,0,0,0.66190833959429,0.33809166040571,0.431818181818182,0.568181818181818,0,0
6,26,"PSC",1,2,0,3,2,1,"Right",2137.79,23,29,46,26,873,2,23,47,2,1,5,6,7,8,6,7,7,2,23,26,46,29,0,0.407058823529412,0.592941176470588,0,0.407058823529412,0.592941176470588,0,0.420238931834153,0.579761068165847,0
6,27,"NSC",0,3,2,3,0,1,"Right",2428.64,37,29,10,42,883,0,13,30,3,0,1,2,3,4,1,4,1,1,10,42,37,29,0.686418458311484,0,0,0.313581541688516,0.686418458311484,0.313581541688516,0.279207920792079,0,0,0.720792079207921
6,28,"PSC",1,3,1,3,0,2,"Left",2528.93,22,29,20,50,905,1,23,30,3,0,5,6,7,8,6,8,6,1,20,22,50,29,0,0.538541666666667,0.133333333333333,0.328125,0.538541666666667,0.328125,0,0.461988304093567,0,0.538011695906433
6,29,"NSC",0,2,1,3,0,2,"Down",1524.36,38,34,14,40,945,2,13,40,2,1,1,2,3,4,1,3,3,2,14,38,40,34,0.608949416342412,0,0.391050583657588,0,0.608949416342412,0.391050583657588,0.826653306613226,0,0.0741482965931864,0.0991983967935872
6,30,"NSC",0,3,0,2,1,3,"Down",1781.14,18,43,35,28,973,3,13,30,3,1,1,2,3,4,1,4,4,2,18,35,43,28,0.350676378772112,0,0,0.649323621227888,0.350676378772112,0.649323621227888,0.312741312741313,0,0,0.687258687258687
6,31,"PSC",0,2,1,2,0,3,"Up",3051.91,28,44,22,31,1017,2,20,47,2,1,5,6,7,8,5,7,7,2,22,28,44,31,0.39300244100895,0.0520748576078112,0.554922701383238,0,0.39300244100895,0.554922701383238,0.0818181818181818,0,0.918181818181818,0
6,32,"NSC",1,2,3,1,2,0,"Up",1652.39,33,40,39,10,1057,1,37,40,2,0,1,2,3,4,2,3,2,1,10,40,39,33,0.099554234769688,0.616641901931649,0.283803863298663,0,0.616641901931649,0.283803863298663,0,0.216216216216216,0.783783783783784,0
6,33,"PSC",1,2,0,1,3,2,"Up",1970.05,20,20,28,46,1077,1,23,47,2,0,5,6,7,8,6,7,6,1,20,20,46,28,0,0.710893854748603,0.19413407821229,0.0949720670391061,0.710893854748603,0.19413407821229,0,0.279245283018868,0.720754716981132,0
6,34,"PSC",0,3,1,0,2,3,"Up",1728.23,26,22,47,28,1099,0,20,30,3,0,5,6,7,8,5,8,5,1,22,26,47,28,0.683665338645418,0.0956175298804781,0,0.220717131474104,0.683665338645418,0.220717131474104,0.840189873417722,0,0,0.159810126582278
6,35,"PSC",1,3,3,2,0,1,"Left",2392.36,31,51,24,24,1130,3,23,30,3,1,5,6,7,8,6,8,8,2,24,24,51,31,0,0.336927223719677,0.202156334231806,0.460916442048518,0.336927223719677,0.460916442048518,0,0.421711899791232,0,0.578288100208768
6,36,"NSC",1,2,1,0,2,3,"Right",1551.51,36,11,42,32,1172,2,37,40,2,1,1,2,3,4,2,3,3,2,11,36,42,32,0,0.410065237651445,0.589934762348555,0,0.410065237651445,0.589934762348555,0,0.654357459379616,0.345642540620384,0
6,37,"PSC",2,3,0,2,3,1,"Up",1629.33,21,50,29,21,1222,2,47,30,2,1,5,6,7,8,7,8,7,1,21,21,50,29,0,0,0.61764705882353,0.382352941176471,0.61764705882353,0.382352941176471,0,0,0.463338533541342,0.536661466458658
6,38,"NSC",1,3,1,2,3,0,"Left",1590.49,38,42,28,11,1260,1,37,30,1,1,1,2,3,4,2,4,2,1,11,38,42,28,0,0.434404865334492,0,0.565595134665508,0.434404865334492,0.565595134665508,0,0.212121212121212,0,0.787878787878788
6,39,"NSC",0,3,1,0,2,3,"Up",2910.91,37,11,37,32,1271,0,13,30,3,0,1,2,3,4,1,4,1,1,11,37,37,32,0.711317659923455,0,0.112629852378349,0.176052487698196,0.711317659923455,0.176052487698196,0.346534653465347,0,0,0.653465346534653
6,40,"PSC",1,3,1,3,2,0,"Left",2667.13,23,30,47,22,1294,1,23,30,3,0,5,6,7,8,6,8,6,1,22,23,47,30,0,0.559300873907616,0.109862671660424,0.33083645443196,0.559300873907616,0.33083645443196,0,0.311351351351351,0,0.688648648648649
6,41,"PSC",1,2,2,1,0,3,"Up",2867.47,48,22,22,31,1316,1,23,47,2,0,5,6,7,8,6,7,6,1,22,22,48,31,0,0.62126582278481,0.37873417721519,0,0.62126582278481,0.37873417721519,0,0.570579494799406,0.429420505200594,0
6,42,"NSC",2,3,3,1,2,0,"Right",2132.1,34,38,39,15,1355,2,40,30,2,1,1,2,3,4,3,4,3,1,15,38,39,34,0,0,0.658725048293625,0.341274951706375,0.658725048293625,0.341274951706375,0,0,0.514629948364888,0.485370051635112
6,43,"NSC",1,2,3,0,1,2,"Down",3057.97,28,11,36,39,1394,2,37,40,2,1,1,2,3,4,2,3,3,2,11,36,39,28,0,0.458818802732021,0.46645239051828,0.0747288067496987,0.458818802732021,0.46645239051828,0,0.300444444444444,0.699555555555556,0
6,44,"NSC",0,3,0,1,3,2,"Right",3438.47,9,37,29,40,1423,3,13,30,3,1,1,2,3,4,1,4,4,2,9,37,40,29,0.462692459534149,0,0,0.537307540465851,0.462692459534149,0.537307540465851,0.440559440559441,0,0,0.559440559440559
6,45,"NSC",2,3,2,3,1,0,"Left",2330.68,40,30,33,13,1463,2,40,30,2,1,1,2,3,4,3,4,3,1,13,33,40,30,0,0.0994832041343669,0.493540051679587,0.406976744186047,0.493540051679587,0.406976744186047,0,0,0.401069518716578,0.598930481283422
6,46,"NSC",0,3,2,0,1,3,"Down",2724.93,39,14,37,30,1493,3,13,30,3,1,1,2,3,4,1,4,4,2,14,37,39,30,0.283431006925946,0,0.0692594565796484,0.647309536494406,0.283431006925946,0.647309536494406,0.408450704225352,0,0,0.591549295774648
6,47,"PSC",0,3,3,0,1,2,"Up",3549.28,32,19,24,45,1512,0,20,30,3,0,5,6,7,8,5,8,5,1,19,24,45,32,0.697214076246334,0,0.114369501466276,0.18841642228739,0.697214076246334,0.18841642228739,0.553030303030303,0,0,0.446969696969697
6,48,"PSC",1,2,1,3,2,0,"Right",3696.02,25,33,44,24,1556,2,23,47,2,1,5,6,7,8,6,7,7,2,24,25,44,33,0,0.414677591734948,0.521197007481297,0.0641254007837549,0.414677591734948,0.521197007481297,0,0.208476517754868,0.791523482245132,0
6,49,"NSC",0,1,1,0,3,2,"Up",3906.36,34,16,31,38,1572,0,13,37,1,0,1,2,3,4,1,2,1,1,16,34,38,31,0.624712202609363,0.375287797390637,0,0,0.624712202609363,0.375287797390637,0.373056994818653,0.362694300518135,0.264248704663212,0
6,50,"PSC",0,3,3,1,2,0,"Left",2775.75,29,24,46,24,1601,3,20,30,3,1,5,6,7,8,5,8,8,2,24,24,46,29,0.55160744500846,0,0,0.44839255499154,0.55160744500846,0.44839255499154,0.611814345991561,0,0,0.388185654008439
6,51,"NSC",0,2,3,0,2,1,"Right",2765.66,29,15,41,36,1642,2,13,40,2,1,1,2,3,4,1,3,3,2,15,36,41,29,0.443859649122807,0.0776315789473684,0.408333333333333,0.0701754385964912,0.443859649122807,0.408333333333333,0,0,0,0
6,52,"NSC",1,3,2,3,1,0,"Up",2717.89,40,29,37,12,1671,3,37,30,1,0,1,2,3,4,2,4,4,2,12,37,40,29,0,0.440276406712734,0,0.559723593287266,0.440276406712734,0.559723593287266,0,0.539792387543253,0.280276816608997,0.179930795847751
6,53,"NSC",0,2,3,0,1,2,"Down",2885.28,31,16,38,40,1711,2,13,40,2,1,1,2,3,4,1,3,3,2,16,38,40,31,0.318131256952169,0,0.615127919911012,0.0667408231368187,0.318131256952169,0.615127919911012,0.157232704402516,0.614255765199161,0.228511530398323,0
6,54,"NSC",0,1,1,0,2,3,"Up",2582.6,40,9,43,31,1720,0,13,37,1,0,1,2,3,4,1,2,1,1,9,40,43,31,0.54401519949335,0.45598480050665,0,0,0.54401519949335,0.45598480050665,0.233418367346939,0.766581632653061,0,0
6,55,"PSC",2,3,2,1,3,0,"Left",2298.46,48,19,26,21,1768,2,47,30,2,1,5,6,7,8,7,8,7,1,21,19,48,26,0.120541205412054,0,0.479704797047971,0.399753997539975,0.479704797047971,0.399753997539975,0,0,0,0
6,56,"NSC",1,3,1,3,2,0,"Left",1433.94,37,31,42,12,1805,1,37,30,1,1,1,2,3,4,2,4,2,1,12,37,42,31,0,0.461463414634146,0.165853658536585,0.372682926829268,0.461463414634146,0.372682926829268,0,0.140952380952381,0.52,0.339047619047619
6,57,"NSC",0,2,0,1,2,3,"Left",2160.71,11,36,41,31,1816,0,13,40,2,0,1,2,3,4,1,3,1,1,11,36,41,31,0.474679270762998,0,0.525320729237002,0,0.474679270762998,0.525320729237002,0.294339622641509,0,0.70566037735849,0
6,58,"PSC",0,3,0,1,3,2,"Right",1793.08,24,24,30,51,1846,3,20,30,3,1,5,6,7,8,5,8,8,2,24,24,51,30,0.239457831325301,0,0,0.760542168674699,0.239457831325301,0.760542168674699,0.293719806763285,0.258937198067633,0.221256038647343,0.226086956521739
6,59,"PSC",0,2,3,2,0,1,"Up",4274.96,31,45,24,20,1891,2,20,47,2,1,5,6,7,8,5,7,7,2,24,20,45,31,0.364931846344486,0,0.586121437422553,0.0489467162329616,0.364931846344486,0.586121437422553,0.672697368421053,0,0.327302631578947,0
6,60,"PSC",1,2,3,2,0,1,"Up",3311.04,32,46,23,25,1937,2,23,47,2,1,5,6,7,8,6,7,7,2,23,25,46,32,0,0.568659127625202,0.431340872374798,0,0.568659127625202,0.431340872374798,0,0.384683882457703,0.605520926090828,0.00979519145146928
7,1,"PSC",2,3,3,1,0,2,"Down",1234.9,30,25,15,47,47,2,47,30,2,1,5,6,7,8,7,8,7,1,15,25,47,30,0,0,0.49244060475162,0.50755939524838,0.49244060475162,0.50755939524838,0,0,0.786866359447005,0.213133640552995
7,2,"NSC",0,2,1,0,3,2,"Up",1007.48,36,15,29,41,62,0,13,40,2,0,1,2,3,4,1,3,1,1,15,36,41,29,0.437762237762238,0.240559440559441,0.321678321678322,0,0.437762237762238,0.321678321678322,0.0621144437353755,0,0.937885556264625,0
7,3,"PSC",0,1,3,0,1,2,"Right",936.98,27,19,25,47,87,1,20,23,1,1,5,6,7,8,5,6,6,2,19,25,47,27,0.595375722543353,0.404624277456647,0,0,0.595375722543353,0.404624277456647,0.106284658040665,0.159889094269871,0.561922365988909,0.171903881700555
7,4,"NSC",0,1,2,3,0,1,"Down",1054.01,39,32,13,41,128,1,13,37,1,1,1,2,3,4,1,2,2,2,13,41,39,32,0.248628884826325,0.751371115173675,0,0,0.248628884826325,0.751371115173675,0.100858369098712,0.582260371959943,0.278254649499285,0.0386266094420601
7,5,"NSC",0,2,0,3,2,1,"Right",1262.52,12,31,40,37,168,2,13,40,2,1,1,2,3,4,1,3,3,2,12,37,40,31,0.49482163406214,0,0.50517836593786,0,0.49482163406214,0.50517836593786,0.54608938547486,0,0.45391061452514,0
7,6,"PSC",0,3,2,3,1,0,"Up",5167.96,45,32,24,19,200,3,20,30,3,1,5,6,7,8,5,8,8,2,19,24,45,32,0.342699448068239,0.0572002007024586,0,0.600100351229303,0.342699448068239,0.600100351229303,0.436210847975554,0,0.25974025974026,0.304048892284186
7,7,"NSC",1,3,2,3,0,1,"Down",2296.2,41,30,16,36,236,1,37,30,1,1,1,2,3,4,2,4,2,1,16,36,41,30,0,0.601571268237935,0.11672278338945,0.281705948372615,0.601571268237935,0.281705948372615,0.0872367855608079,0.16931671680275,0.167597765363128,0.575848732273313
7,8,"PSC",0,2,3,0,2,1,"Up",3846.17,29,17,51,26,253,0,20,47,2,0,5,6,7,8,5,7,5,1,17,26,51,29,0.564749689697973,0.163839470417873,0.205213074058751,0.0661977658254034,0.564749689697973,0.205213074058751,0.0775650466372116,0.402552773686794,0.519882179675994,0
7,9,"PSC",2,3,0,1,2,3,"Right",1181.92,15,21,45,34,298,2,47,30,2,1,5,6,7,8,7,8,7,1,15,21,45,34,0,0,0.492407809110629,0.507592190889371,0.492407809110629,0.507592190889371,0,0,0.545945945945946,0.454054054054054
7,10,"NSC",1,3,2,3,0,1,"Up",3286.6,42,31,12,37,329,3,37,30,1,0,1,2,3,4,2,4,4,2,12,37,42,31,0.0450381679389313,0.464885496183206,0,0.490076335877863,0.464885496183206,0.490076335877863,0,0,0.414790996784566,0.585209003215434
7,11,"NSC",1,3,0,3,2,1,"Down",1930.33,15,31,40,37,366,1,37,30,1,1,1,2,3,4,2,4,2,1,15,37,40,31,0,0.654545454545455,0,0.345454545454545,0.654545454545455,0.345454545454545,0.147169811320755,0.309433962264151,0,0.543396226415094
7,12,"PSC",1,3,2,1,3,0,"Up",3254.71,51,24,31,24,390,1,23,30,3,0,5,6,7,8,6,8,6,1,24,24,51,31,0,0.489177489177489,0,0.510822510822511,0.489177489177489,0.510822510822511,0.363386097728837,0,0.496214728148658,0.140399174122505
7,13,"PSC",0,3,0,3,1,2,"Left",2868.09,24,29,24,46,414,0,20,30,3,0,5,6,7,8,5,8,5,1,24,24,46,29,0.575928537846732,0,0,0.424071462153268,0.575928537846732,0.424071462153268,0.232,0,0,0.768
7,14,"NSC",2,3,2,1,3,0,"Left",2358.72,42,39,27,10,456,2,40,30,2,1,1,2,3,4,3,4,3,1,10,39,42,27,0,0.173562600752284,0.398710370768404,0.427727028479312,0.398710370768404,0.427727028479312,0,0,0.279279279279279,0.720720720720721
7,15,"NSC",1,2,0,3,1,2,"Down",4329.92,11,32,36,42,498,2,37,40,2,1,1,2,3,4,2,3,3,2,11,36,42,32,0.0592713431212616,0.582925502990756,0.357803153887983,0,0.582925502990756,0.357803153887983,0,0,1,0
7,16,"PSC",1,3,0,1,2,3,"Up",1593.02,17,25,46,28,523,1,23,30,3,0,5,6,7,8,6,8,6,1,17,25,46,28,0.163865546218487,0.615546218487395,0,0.220588235294118,0.615546218487395,0.220588235294118,0,1,0,0
7,17,"PSC",1,2,0,1,3,2,"Down",2373.96,20,20,28,46,569,2,23,47,2,1,5,6,7,8,6,7,7,2,20,20,46,28,0,0.572898799313894,0.427101200686106,0,0.572898799313894,0.427101200686106,0,0.529411764705882,0.470588235294118,0
7,18,"PSC",1,3,0,1,3,2,"Up",1528.43,21,22,31,45,591,1,23,30,3,0,5,6,7,8,6,8,6,1,21,22,45,31,0,0.621145374449339,0.12863436123348,0.250220264317181,0.621145374449339,0.250220264317181,0,1,0,0
7,19,"PSC",0,3,0,1,2,3,"Left",2024.02,21,24,47,29,612,0,20,30,3,0,5,6,7,8,5,8,5,1,21,24,47,29,0.659297789336801,0.126137841352406,0,0.214564369310793,0.659297789336801,0.214564369310793,0,0,0,0
7,20,"PSC",1,2,2,1,0,3,"Left",1109.43,46,25,23,32,658,2,23,47,2,1,5,6,7,8,6,7,7,2,23,25,46,32,0,1,0,0,1,0,0,0.415,0.585,0
7,21,"NSC",2,3,2,3,1,0,"Left",1835.57,40,26,36,11,698,2,40,30,2,1,1,2,3,4,3,4,3,1,11,36,40,26,0,0,0.629781420765027,0.370218579234973,0.629781420765027,0.370218579234973,0,0,0,1
7,22,"NSC",0,3,3,0,2,1,"Up",3734.68,28,18,43,35,716,0,13,30,3,0,1,2,3,4,1,4,1,1,18,35,43,28,0.602206359506814,0,0,0.397793640493186,0.602206359506814,0.397793640493186,0,0,0,1
7,23,"PSC",0,3,3,0,2,1,"Up",2369.03,30,24,51,24,740,0,20,30,3,0,5,6,7,8,5,8,5,1,24,24,51,30,0.606372045220966,0,0,0.393627954779034,0.606372045220966,0.393627954779034,1,0,0,0
7,24,"NSC",0,3,0,3,2,1,"Left",2588.17,11,32,37,37,751,0,13,30,3,0,1,2,3,4,1,4,1,1,11,37,37,32,0.588148148148148,0,0,0.411851851851852,0.588148148148148,0.411851851851852,0.344647519582245,0,0,0.655352480417755
7,25,"PSC",2,3,2,0,1,3,"Left",1215.59,50,21,28,27,801,2,47,30,2,1,5,6,7,8,7,8,7,1,21,28,50,27,0.471718249733191,0,0.528281750266809,0,0.528281750266809,0,0,0,1,0
7,26,"NSC",0,3,0,2,3,1,"Right",2698.86,10,37,29,42,830,3,13,30,3,1,1,2,3,4,1,4,4,2,10,42,37,29,0.595680345572354,0,0.0941684665226782,0.310151187904968,0.595680345572354,0.310151187904968,0,0,0,1
7,27,"PSC",0,1,0,1,2,3,"Up",3368.2,21,24,46,32,854,1,20,23,1,1,5,6,7,8,5,6,6,2,21,24,46,32,0.459277917716205,0.540722082283795,0,0,0.459277917716205,0.540722082283795,0,0,0,0
7,28,"PSC",2,3,3,2,1,0,"Up",1598.47,26,48,19,21,902,2,47,30,2,1,5,6,7,8,7,8,7,1,21,19,48,26,0,0,0.613981762917933,0.386018237082067,0.613981762917933,0.386018237082067,0,0,0,1
7,29,"NSC",1,2,2,1,3,0,"Left",2479.05,41,38,31,15,943,2,37,40,2,1,1,2,3,4,2,3,3,2,15,38,41,31,0,0.441646489104116,0.558353510895884,0,0.441646489104116,0.558353510895884,0,0.513513513513513,0.486486486486487,0
7,30,"PSC",1,2,0,1,3,2,"Down",1805.08,23,26,29,46,989,2,23,47,2,1,5,6,7,8,6,7,7,2,23,26,46,29,0.129339686861811,0.291354663036079,0.57930565010211,0,0.291354663036079,0.57930565010211,0,1,0,0
7,31,"NSC",0,3,2,3,0,1,"Up",4057.75,40,29,9,37,1018,3,13,30,3,1,1,2,3,4,1,4,4,2,9,37,40,29,0.395466746197435,0,0.0393677303906949,0.56516552341187,0.395466746197435,0.56516552341187,0.297650130548303,0,0.326370757180157,0.37597911227154
7,32,"PSC",0,1,2,0,1,3,"Up",2063.13,48,18,21,31,1036,0,20,23,1,0,5,6,7,8,5,6,5,1,18,21,48,31,0.604103802051901,0.395896197948099,0,0,0.604103802051901,0.395896197948099,1,0,0,0
7,33,"NSC",2,3,0,2,3,1,"Up",2691.73,15,39,34,38,1075,2,40,30,2,1,1,2,3,4,3,4,3,1,15,38,39,34,0.0570866141732283,0,0.570866141732283,0.372047244094488,0.570866141732283,0.372047244094488,0,0,0.494623655913978,0.505376344086022
7,34,"PSC",0,1,0,2,1,3,"Right",3052.92,22,45,23,31,1098,1,20,23,1,1,5,6,7,8,5,6,6,2,22,23,45,31,0.369682907965971,0.535189481825213,0.0951276102088167,0,0.369682907965971,0.535189481825213,0.722627737226277,0.277372262773723,0,0
7,35,"NSC",0,1,3,2,0,1,"Right",3037.83,31,43,9,40,1107,0,13,37,1,0,1,2,3,4,1,2,1,1,9,40,43,31,0.683632734530938,0.251497005988024,0.0648702594810379,0,0.683632734530938,0.251497005988024,0.288808664259928,0.711191335740072,0,0
7,36,"NSC",1,3,1,3,0,2,"Up",2213.22,37,29,12,40,1136,3,37,30,1,0,1,2,3,4,2,4,4,2,12,37,40,29,0.0741560597675706,0.395130049806309,0,0.530713890426121,0.395130049806309,0.530713890426121,0,0.107078039927405,0,0.892921960072595
7,37,"PSC",1,2,0,2,1,3,"Up",1307.51,22,48,22,31,1184,2,23,47,2,1,5,6,7,8,6,7,7,2,22,22,48,31,0.174224343675418,0.133651551312649,0.692124105011933,0,0.133651551312649,0.692124105011933,0,0.191780821917808,0.808219178082192,0
7,38,"NSC",2,3,0,3,2,1,"Right",1686.73,14,29,39,35,1223,2,40,30,2,1,1,2,3,4,3,4,3,1,14,35,39,29,0,0,0.644932214331827,0.355067785668173,0.644932214331827,0.355067785668173,0,0,0.344383057090239,0.655616942909761
7,39,"PSC",0,2,2,1,0,3,"Left",2174.83,46,27,21,34,1269,2,20,47,2,1,5,6,7,8,5,7,7,2,21,27,46,34,0.70840108401084,0,0.29159891598916,0,0.70840108401084,0.29159891598916,0,0,0,0
7,40,"NSC",0,1,2,1,0,3,"Right",1872.67,38,34,16,31,1285,0,13,37,1,0,1,2,3,4,1,2,1,1,16,34,38,31,0.573577501635056,0.340091563113146,0.0863309352517986,0,0.573577501635056,0.340091563113146,0.241573033707865,0.758426966292135,0,0
7,41,"PSC",2,3,3,2,0,1,"Up",1803.86,29,50,21,21,1335,2,47,30,2,1,5,6,7,8,7,8,7,1,21,21,50,29,0.04860088365243,0,0.51840942562592,0.43298969072165,0.51840942562592,0.43298969072165,0,0,0.567430025445293,0.432569974554707
7,42,"PSC",1,3,2,0,1,3,"Right",4080.3,47,22,23,30,1358,1,23,30,3,0,5,6,7,8,6,8,6,1,22,23,47,30,0.0313778990450205,0.586630286493861,0,0.381991814461119,0.586630286493861,0.381991814461119,0,0.513853904282116,0,0.486146095717884
7,43,"PSC",0,2,3,0,2,1,"Right",1150.74,31,17,48,25,1406,2,20,47,2,1,5,6,7,8,5,7,7,2,17,25,48,31,0.586776859504132,0,0.413223140495868,0,0.586776859504132,0.413223140495868,0.639344262295082,0,0.360655737704918,0
7,44,"NSC",0,2,0,1,3,2,"Left",2794.53,16,38,31,40,1422,0,13,40,2,0,1,2,3,4,1,3,1,1,16,38,40,31,0.61754068716094,0,0.188969258589512,0.193490054249548,0.61754068716094,0.188969258589512,0,0,1,0
7,45,"PSC",0,1,2,1,0,3,"Right",2255.53,46,25,19,31,1441,0,20,23,1,0,5,6,7,8,5,6,5,1,19,25,46,31,0.420012353304509,0.579987646695491,0,0,0.420012353304509,0.579987646695491,0.331550802139037,0.668449197860963,0,0
7,46,"NSC",1,2,3,2,1,0,"Right",2678.2,29,42,35,16,1476,1,37,40,2,0,1,2,3,4,2,3,2,1,16,35,42,29,0.031021897810219,0.558394160583942,0.410583941605839,0,0.558394160583942,0.410583941605839,0,0.135181975736568,0.864818024263432,0
7,47,"NSC",1,2,1,3,2,0,"Left",2497.76,36,28,39,11,1512,1,37,40,2,0,1,2,3,4,2,3,2,1,11,36,39,28,0,0.488349514563107,0.511650485436893,0,0.488349514563107,0.511650485436893,0,0,0,0
7,48,"NSC",0,2,0,2,1,3,"Left",956.73,11,41,36,31,1523,0,13,40,2,0,1,2,3,4,1,3,1,1,11,36,41,31,0.362179487179487,0.182692307692308,0.455128205128205,0,0.362179487179487,0.455128205128205,0,0,1,0
7,49,"PSC",0,2,3,2,0,1,"Up",2994,31,44,22,28,1567,2,20,47,2,1,5,6,7,8,5,7,7,2,22,28,44,31,0.161550888529887,0,0.804523424878837,0.0339256865912763,0.161550888529887,0.804523424878837,0.147157190635452,0,0.852842809364548,0
7,50,"PSC",1,2,2,0,3,1,"Left",2342.75,44,24,33,25,1611,2,23,47,2,1,5,6,7,8,6,7,7,2,24,25,44,33,0.0607734806629834,0.528176795580111,0.411049723756906,0,0.528176795580111,0.411049723756906,0,0,1,0
7,51,"NSC",1,3,2,1,0,3,"Up",1947.38,42,38,11,28,1649,1,37,30,1,1,1,2,3,4,2,4,2,1,11,38,42,28,0,0.202057998129093,0.10289990645463,0.695042095416277,0.202057998129093,0.695042095416277,0,0,0,0
7,52,"NSC",0,1,0,1,2,3,"Left",3304.86,13,34,42,27,1662,0,13,37,1,0,1,2,3,4,1,2,1,1,13,34,42,27,0.516129032258065,0.463192721257237,0,0.0206782464846981,0.516129032258065,0.463192721257237,0.291666666666667,0.708333333333333,0,0
7,53,"NSC",0,2,0,1,3,2,"Down",4970.6,14,38,34,40,1702,2,13,40,2,1,1,2,3,4,1,3,3,2,14,38,40,34,0.494041170097508,0,0.505958829902492,0,0.494041170097508,0.505958829902492,0,0,0,0
7,54,"PSC",1,3,1,3,0,2,"Up",2561.94,22,29,20,50,1731,3,23,30,3,1,5,6,7,8,6,8,8,2,20,22,50,29,0,0.321192052980132,0.0905077262693157,0.588300220750552,0.321192052980132,0.588300220750552,0,1,0,0
7,55,"NSC",2,3,3,2,1,0,"Up",2696.83,30,40,33,13,1771,2,40,30,2,1,1,2,3,4,3,4,3,1,13,33,40,30,0,0,0.386421643695763,0.613578356304237,0.386421643695763,0.613578356304237,0,0,1,0
7,56,"NSC",1,2,3,0,2,1,"Right",2652.95,33,10,39,40,1810,2,37,40,2,1,1,2,3,4,2,3,3,2,10,40,39,33,0.134299516908213,0.477294685990338,0.388405797101449,0,0.477294685990338,0.388405797101449,0,0,1,0
7,57,"NSC",0,3,0,1,3,2,"Left",1344.27,14,37,30,39,1824,0,13,30,3,0,1,2,3,4,1,4,1,1,14,37,39,30,0.606060606060606,0,0,0.393939393939394,0.606060606060606,0.393939393939394,1,0,0,0
7,58,"PSC",0,3,0,3,1,2,"Up",2370.72,22,28,26,47,1852,3,20,30,3,1,5,6,7,8,5,8,8,2,22,26,47,28,0.430783669638667,0,0.0610042233693102,0.508212106992022,0.430783669638667,0.508212106992022,0,0,0,1
7,59,"NSC",0,1,2,0,1,3,"Up",2395.81,42,14,37,31,1866,0,13,37,1,0,1,2,3,4,1,2,1,1,14,37,42,31,0.424364123159304,0.461847389558233,0.113788487282463,0,0.424364123159304,0.461847389558233,0,1,0,0
7,60,"PSC",0,2,1,2,0,3,"Up",2089.04,20,45,24,31,1911,2,20,47,2,1,5,6,7,8,5,7,7,2,24,20,45,31,0.46639231824417,0,0.53360768175583,0,0.46639231824417,0.53360768175583,0,0,0,0
8,1,"NSC",1,2,2,1,3,0,"Up",2326.25,42,35,29,16,35,1,37,40,2,0,1,2,3,4,2,3,2,1,16,35,42,29,0,0.559729526671675,0.440270473328325,0,0.559729526671675,0.440270473328325,0,0.621123218776194,0.378876781223806,0
8,2,"NSC",0,2,2,3,1,0,"Down",2615.51,41,31,36,11,46,0,13,40,2,0,1,2,3,4,1,3,1,1,11,36,41,31,0.423707440100883,0.0668348045397226,0.416141235813367,0.0933165195460277,0.423707440100883,0.416141235813367,0.510297482837529,0,0.356979405034325,0.132723112128146
8,3,"NSC",0,1,3,2,1,0,"Right",2080.38,32,39,41,13,87,1,13,37,1,1,1,2,3,4,1,2,2,2,13,41,39,32,0.323308270676692,0.568421052631579,0,0.108270676691729,0.323308270676692,0.568421052631579,0.540740740740741,0.34156378600823,0,0.117695473251029
8,4,"PSC",0,2,1,0,3,2,"Up",3122.92,27,21,34,46,108,0,20,47,2,0,5,6,7,8,5,7,5,1,21,27,46,34,0.604199066874028,0.0489891135303266,0.346811819595645,0,0.604199066874028,0.346811819595645,0.153284671532847,0.147810218978102,0.555961070559611,0.14294403892944
8,5,"NSC",1,2,1,2,0,3,"Up",2118.73,38,41,15,31,149,2,37,40,2,1,1,2,3,4,2,3,3,2,15,38,41,31,0,0.297169811320755,0.702830188679245,0,0.297169811320755,0.702830188679245,0.219596046411689,0.364847443059734,0.198109153416416,0.217447357112162
8,6,"PSC",0,3,0,1,3,2,"Left",1725.59,22,26,28,47,171,0,20,30,3,0,5,6,7,8,5,8,5,1,22,26,47,28,0.730205278592375,0.12316715542522,0,0.146627565982405,0.730205278592375,0.146627565982405,0.407258064516129,0.0516129032258065,0.0911290322580645,0.45
8,7,"NSC",1,2,0,2,1,3,"Up",2294.52,11,39,36,28,210,2,37,40,2,1,1,2,3,4,2,3,3,2,11,36,39,28,0,0.259219088937093,0.740780911062907,0,0.259219088937093,0.740780911062907,0.0757654385054489,0.49507005708355,0.36377789309808,0.0653866113129216
8,8,"PSC",1,2,0,3,2,1,"Down",2886.29,22,31,48,22,232,1,23,47,2,0,5,6,7,8,6,7,6,1,22,22,48,31,0,0.56988082340195,0.344528710725894,0.085590465872156,0.56988082340195,0.344528710725894,0,0.133640552995392,0.815668202764977,0.0506912442396313
8,9,"PSC",1,3,2,1,0,3,"Down",3934.71,51,24,24,31,263,3,23,30,3,1,5,6,7,8,6,8,8,2,24,24,51,31,0,0.633283132530121,0.0805722891566265,0.286144578313253,0.633283132530121,0.286144578313253,0.143338954468803,0.63575042158516,0.116357504215852,0.104553119730185
8,10,"PSC",0,2,2,1,3,0,"Left",1124.59,45,20,31,24,308,2,20,47,2,1,5,6,7,8,5,7,7,2,24,20,45,31,0.209638554216867,0,0.790361445783132,0,0.209638554216867,0.790361445783132,0.257883933569696,0.24127635752939,0.270946072028364,0.229893636872551
8,11,"NSC",0,1,1,2,3,0,"Down",2555.28,34,38,31,16,324,0,13,37,1,0,1,2,3,4,1,2,1,1,16,34,38,31,0.615758754863813,0.384241245136187,0,0,0.615758754863813,0.384241245136187,0.132045088566828,0.640901771336554,0.126409017713366,0.100644122383253
8,12,"PSC",1,2,3,0,2,1,"Right",3175.62,29,23,46,26,370,2,23,47,2,1,5,6,7,8,6,7,7,2,23,26,46,29,0.0524590163934426,0.419672131147541,0.449180327868852,0.0786885245901639,0.419672131147541,0.449180327868852,0.189067863744389,0.214417744916821,0.405334037496699,0.191180353842091
8,13,"NSC",1,3,2,3,1,0,"Up",2431.2,42,28,38,11,398,3,37,30,1,0,1,2,3,4,2,4,4,2,11,38,42,28,0.0724789915966387,0.188025210084034,0,0.739495798319328,0.188025210084034,0.739495798319328,0,0.588888888888889,0.102777777777778,0.308333333333333
8,14,"PSC",0,3,0,3,2,1,"Up",2980.14,21,29,47,24,427,3,20,30,3,1,5,6,7,8,5,8,8,2,21,24,47,29,0.432700247729149,0,0,0.567299752270851,0.432700247729149,0.567299752270851,0.195560887822436,0.31373725254949,0.283143371325735,0.20755848830234
8,15,"NSC",1,2,2,1,0,3,"Up",2043.02,42,36,11,32,463,1,37,40,2,0,1,2,3,4,2,3,2,1,11,36,42,32,0,0.598535692495424,0.401464307504576,0,0.598535692495424,0.401464307504576,0.151408450704225,0.194366197183099,0.511267605633803,0.142957746478873
8,16,"PSC",1,3,0,3,2,1,"Up",4294.26,17,28,46,25,491,3,23,30,3,1,5,6,7,8,6,8,8,2,17,25,46,28,0,0.291236254581806,0,0.708763745418194,0.291236254581806,0.708763745418194,0,0.616811594202899,0.281739130434783,0.101449275362319
8,17,"NSC",1,3,2,3,1,0,"Up",4677.13,40,31,37,15,522,3,37,30,1,0,1,2,3,4,2,4,4,2,15,37,40,31,0,0.47805885389778,0,0.52194114610222,0.47805885389778,0.52194114610222,0,0.517220543806647,0.124471299093656,0.358308157099698
8,18,"NSC",0,3,1,3,2,0,"Up",2380.1,35,28,43,18,550,3,13,30,3,1,1,2,3,4,1,4,4,2,18,35,43,28,0.261215218625781,0,0,0.738784781374219,0.261215218625781,0.738784781374219,0.201627723812024,0.207403517983723,0.391966395379365,0.199002362824888
8,19,"NSC",1,3,2,0,3,1,"Down",1502.62,41,16,30,36,586,1,37,30,1,1,1,2,3,4,2,4,2,1,16,36,41,30,0.166374781085814,0.604203152364273,0,0.229422066549912,0.604203152364273,0.229422066549912,0.110977804439112,0.31493701259748,0.336532693461308,0.2375524895021
8,20,"NSC",0,2,0,2,1,3,"Up",1503.05,15,41,36,29,627,2,13,40,2,1,1,2,3,4,1,3,3,2,15,36,41,29,0.275862068965517,0,0.724137931034483,0,0.275862068965517,0.724137931034483,0.814655172413793,0,0.185344827586207,0
8,21,"PSC",2,3,1,0,3,2,"Down",1594.41,21,15,34,45,672,2,47,30,2,1,5,6,7,8,7,8,7,1,15,21,45,34,0.271439224459359,0,0.588366890380313,0.140193885160328,0.588366890380313,0.140193885160328,0.214556163230963,0.0908708456037021,0.37147665124106,0.323096339924274
8,22,"PSC",1,2,2,3,1,0,"Left",2213.95,46,32,25,23,718,2,23,47,2,1,5,6,7,8,6,7,7,2,23,25,46,32,0,0.301100173711639,0.630573248407643,0.068326577880718,0.301100173711639,0.630573248407643,0.474735605170388,0.126909518213866,0.170387779083431,0.227967097532315
8,23,"NSC",2,3,2,0,3,1,"Left",1657.72,40,11,26,36,758,2,40,30,2,1,1,2,3,4,3,4,3,1,11,36,40,26,0,0,0.699472759226713,0.300527240773286,0.699472759226713,0.300527240773286,0.0683229813664596,0,0.680124223602484,0.251552795031056
8,24,"NSC",0,3,3,1,0,2,"Right",2586.62,29,42,10,37,768,0,13,30,3,0,1,2,3,4,1,4,1,1,10,42,37,29,0.505440158259149,0,0,0.494559841740851,0.505440158259149,0.494559841740851,0.223021582733813,0,0,0.776978417266187
8,25,"PSC",1,3,0,3,2,1,"Down",2650.68,21,31,45,22,790,1,23,30,3,0,5,6,7,8,6,8,6,1,21,22,45,31,0.0577981651376147,0.561467889908257,0,0.380733944954128,0.561467889908257,0.380733944954128,0,0.169811320754717,0,0.830188679245283
8,26,"NSC",0,2,2,1,3,0,"Left",2080.58,40,37,31,12,830,2,13,40,2,1,1,2,3,4,1,3,3,2,12,37,40,31,0.242610837438424,0.0652709359605911,0.692118226600985,0,0.242610837438424,0.692118226600985,0.20703125,0.54296875,0.1640625,0.0859375
8,27,"PSC",0,3,2,3,1,0,"Up",2150.89,46,29,24,24,859,3,20,30,3,1,5,6,7,8,5,8,8,2,24,24,46,29,0.253855278766311,0,0.0937129300118624,0.652431791221827,0.253855278766311,0.652431791221827,0.282828282828283,0.16969696969697,0.25050505050505,0.296969696969697
8,28,"PSC",2,3,1,0,3,2,"Down",2941.83,19,21,26,48,907,2,47,30,2,1,5,6,7,8,7,8,7,1,21,19,48,26,0.0489901160292222,0.050709067468844,0.590030081650193,0.31027073485174,0.590030081650193,0.31027073485174,0.271555428244056,0.229160698940132,0.255227728444572,0.24405614437124
8,29,"PSC",2,3,1,0,2,3,"Down",2862.66,25,15,47,30,937,3,47,30,2,0,5,6,7,8,7,8,8,2,15,25,47,30,0.050191407911527,0,0.596341982135262,0.353466609953211,0.596341982135262,0.353466609953211,0.10728628800918,0.0814687320711417,0.527251864601262,0.283993115318417
8,30,"PSC",0,1,1,3,2,0,"Down",2955.4,25,31,46,19,956,0,20,23,1,0,5,6,7,8,5,6,5,1,19,25,46,31,0.504475183075671,0.449959316517494,0,0.0455655004068348,0.504475183075671,0.449959316517494,0.134104046242775,0.865895953757225,0,0
8,31,"NSC",0,1,1,2,0,3,"Left",3126.09,40,43,9,31,996,1,13,37,1,1,1,2,3,4,1,2,2,2,9,40,43,31,0.33319274567693,0.608603964571911,0,0.0582032897511598,0.33319274567693,0.608603964571911,0.285232778597009,0.414156309247946,0.202022329892564,0.0985885822624816
8,32,"NSC",2,3,0,2,1,3,"Up",2325.12,13,40,33,30,1036,2,40,30,2,1,1,2,3,4,3,4,3,1,13,33,40,30,0.0804733727810651,0,0.693491124260355,0.22603550295858,0.693491124260355,0.22603550295858,0.420401854714065,0.173106646058733,0.220247295208655,0.186244204018547
8,33,"PSC",1,3,2,3,0,1,"Down",2325.95,47,30,22,23,1059,1,23,30,3,0,5,6,7,8,6,8,6,1,22,23,47,30,0,0.480176211453745,0,0.519823788546255,0.480176211453745,0.519823788546255,0.198971722365039,0.10694087403599,0.229305912596401,0.464781491002571
8,34,"PSC",0,3,1,3,0,2,"Up",5159.36,24,30,24,51,1089,3,20,30,3,1,5,6,7,8,5,8,8,2,24,24,51,30,0.466326282518843,0.0909311937758327,0,0.442742523705325,0.466326282518843,0.442742523705325,0,0,0.194256756756757,0.805743243243243
8,35,"PSC",0,2,0,1,2,3,"Right",2425.73,17,26,51,29,1140,2,20,47,2,1,5,6,7,8,5,7,7,2,17,26,51,29,0.236458333333333,0.0791666666666667,0.6375,0.046875,0.236458333333333,0.6375,0.205405405405405,0.265280665280665,0.0681912681912682,0.461122661122661
